Format Version,1.0,
Take Name,Subject_01_trial,
Capture Frame Rate,100.00,
Export Frame Rate,100.00,
Capture Start Time,07 Feb 2020 17:30:04 +0900,
Total Frames In Take,30272,
Total Exported Frames,30272,
Coordinate Space,Local,
Device Name,AMTI 3195 3195,
Device Type,2,
Device Channel Count,6,
Mocap Rate,100.00,
Mocap Rate Multiple,1.00,

PlateLength,19.750000,
PlateWidth,19.750000,
PlateOrder,2,
PosX_PosY_X,1.001510,
PosX_PosY_Y,-0.003223,
PosX_PosY_Z,0.498871,
NegX_PosY_X,0.499539,
NegX_PosY_Y,-0.002777,
NegX_PosY_Z,0.499509,
NegX_NegY_X,0.499720,
NegX_NegY_Y,0.000446,
NegX_NegY_Z,-0.001964,
PosX_NegY_X,1.001690,
PosX_NegY_Y,0.000000,
PosX_NegY_Z,-0.002602,
Offset_X,0.000000,
Offset_Y,0.000000,
Offset_Z,0.000000


MocapFrame, MocapTime, DeviceFrame, Fx, Fy, Fz, Mx, My, Mz, Cx, Cy, Cz, Tz
0,0.000000,0,0.000000,0.000000,0.000000,0.000000,0.000000,0.000000,0.000000,0.000000,0.000000,0.000000
1,0.010000,1,0.000000,0.000000,0.000000,0.000000,0.000000,0.000000,0.000000,0.000000,0.000000,0.000000
2,0.020000,2,0.000000,0.000000,0.000000,0.000000,0.000000,0.000000,0.000000,0.000000,0.000000,0.000000
3,0.030000,3,0.000000,0.000000,0.000000,0.000000,0.000000,0.000000,0.000000,0.000000,0.000000,0.000000
4,0.040000,4,0.000000,0.000000,0.000000,0.000000,0.000000,0.000000,0.000000,0.000000,0.000000,0.000000
5,0.050000,5,8.251465,-4.562988,-26.805664,1.496399,-0.621399,-4.103271,-0.023182,-0.055824,0.000000,-4.669679
6,0.060000,6,8.092285,-5.490967,-27.046875,1.658020,-0.725006,-3.582397,-0.026806,-0.061302,0.000000,-4.225657
7,0.070000,7,8.465820,-4.404785,-26.809570,1.538818,-0.686707,-3.935181,-0.025614,-0.057398,0.000000,-4.533928
8,0.080000,8,7.977783,-4.537598,-26.804688,1.495850,-0.652924,-3.397339,-0.024359,-0.055806,0.000000,-3.953073
9,0.090000,9,7.821045,-5.310547,-27.303711,1.607666,-0.684692,-3.414307,-0.025077,-0.058881,0.000000,-4.007988
10,0.100000,10,7.667480,-5.314209,-26.918945,1.584229,-0.712250,-3.985718,-0.026459,-0.058852,0.000000,-4.577572
11,0.110000,11,7.919922,-4.260742,-26.937500,1.650940,-0.677856,-3.868164,-0.025164,-0.061288,0.000000,-4.460776
12,0.120000,12,6.998047,-5.081299,-26.404297,1.578308,-0.681519,-4.086670,-0.025811,-0.059775,0.000000,-4.636129
13,0.130000,13,7.646484,-3.958618,-26.426758,1.550781,-0.611908,-3.834351,-0.023155,-0.058682,0.000000,-4.374724
14,0.140000,14,7.038086,-4.338623,-27.185547,1.607056,-0.727356,-4.086670,-0.026755,-0.059114,0.000000,-4.618803
15,0.150000,15,7.500000,-3.743408,-27.327148,1.569397,-0.688782,-4.271484,-0.025205,-0.057430,0.000000,-4.796562
16,0.160000,16,7.767090,-4.110596,-26.424805,1.554443,-0.776459,-3.901733,-0.029384,-0.058825,0.000000,-4.479418
17,0.170000,17,8.922852,-4.303223,-26.943359,1.559448,-0.673737,-4.069824,-0.025006,-0.057879,0.000000,-4.693873
18,0.180000,18,7.136475,-3.319580,-26.818359,1.558655,-0.696686,-4.204346,-0.025978,-0.058119,0.000000,-4.705346
19,0.190000,19,7.590820,-3.711182,-27.200195,1.591675,-0.757660,-4.204346,-0.027855,-0.058517,0.000000,-4.751913
20,0.200000,20,7.128906,-4.244873,-26.931641,1.558289,-0.723999,-4.153809,-0.026883,-0.057861,0.000000,-4.680408
21,0.210000,21,7.584717,-4.451416,-27.187500,1.563538,-0.664429,-4.069824,-0.024439,-0.057509,0.000000,-4.614804
22,0.220000,22,8.134277,-4.071533,-26.941406,1.553955,-0.743073,-4.120361,-0.027581,-0.057679,0.000000,-4.701836
23,0.230000,23,8.318848,-3.759888,-26.819336,1.523071,-0.736603,-3.834351,-0.027465,-0.056790,0.000000,-4.410045
24,0.240000,24,7.583252,-4.482910,-26.930664,1.564087,-0.759857,-4.103271,-0.028215,-0.058078,0.000000,-4.670180
25,0.250000,25,7.799805,-4.169922,-27.194336,1.510376,-0.705383,-4.271484,-0.025939,-0.055540,0.000000,-4.812848
26,0.260000,26,8.282227,-4.623535,-27.061523,1.544373,-0.716949,-3.868164,-0.026493,-0.057069,0.000000,-4.463315
27,0.270000,27,7.586426,-3.928589,-26.554688,1.480896,-0.733368,-4.069824,-0.027617,-0.055768,0.000000,-4.601399
28,0.280000,28,7.740234,-3.924805,-26.941406,1.596619,-0.705811,-4.002441,-0.026198,-0.059263,0.000000,-4.563970
29,0.290000,29,7.647705,-4.080811,-26.938477,1.507996,-0.684967,-4.305176,-0.025427,-0.055979,0.000000,-4.837051
30,0.300000,30,8.288086,-3.791260,-26.818359,1.523804,-0.713623,-4.136963,-0.026609,-0.056819,0.000000,-4.708771
31,0.310000,31,7.377441,-3.654053,-26.942383,1.497620,-0.763031,-4.069824,-0.028321,-0.055586,0.000000,-4.583393
32,0.320000,32,7.985596,-3.673340,-26.947266,1.497986,-0.745941,-3.918701,-0.027682,-0.055590,0.000000,-4.464300
33,0.330000,33,8.469238,-3.973022,-26.816406,1.528259,-0.709167,-4.540527,-0.026445,-0.056990,0.000000,-5.128254
34,0.340000,34,7.918213,-4.445801,-26.933594,1.609253,-0.654602,-3.985718,-0.024304,-0.059749,0.000000,-4.566875
35,0.350000,35,8.107422,-3.671021,-26.948242,1.544128,-0.646820,-3.918701,-0.024002,-0.057300,0.000000,-4.471367
36,0.360000,36,8.107422,-3.333252,-26.311523,1.512207,-0.764191,-3.918457,-0.029044,-0.057473,0.000000,-4.481227
37,0.370000,37,7.582520,-4.636963,-27.056641,1.637268,-0.640961,-3.717041,-0.023690,-0.060513,0.000000,-4.285727
38,0.380000,38,7.978516,-4.690674,-27.315430,1.592468,-0.678314,-4.036377,-0.024833,-0.058299,0.000000,-4.618000
39,0.390000,39,8.068359,-4.536133,-26.676758,1.565125,-0.698029,-3.767090,-0.026166,-0.058670,0.000000,-4.359153
40,0.400000,40,7.643799,-4.574219,-27.058594,1.543274,-0.734711,-4.137207,-0.027153,-0.057035,0.000000,-4.697369
41,0.410000,41,7.984131,-3.888916,-27.071289,1.526489,-0.675140,-4.322021,-0.024939,-0.056388,0.000000,-4.869216
42,0.420000,42,8.072266,-4.134766,-26.812500,1.532288,-0.720856,-3.750366,-0.026885,-0.057148,0.000000,-4.322845
43,0.430000,43,7.554932,-4.298340,-27.061523,1.582764,-0.640656,-4.204346,-0.023674,-0.058488,0.000000,-4.747974
44,0.440000,44,8.043945,-3.857910,-26.687500,1.548523,-0.696594,-3.683228,-0.026102,-0.058024,0.000000,-4.250670
45,0.450000,45,8.193848,-3.856201,-26.175781,1.548035,-0.691406,-3.767090,-0.026414,-0.059140,0.000000,-4.353531
46,0.460000,46,8.310547,-4.777832,-26.803711,1.501709,-0.764008,-4.069824,-0.028504,-0.056026,0.000000,-4.671619
47,0.470000,47,8.220215,-4.625488,-26.804688,1.590454,-0.718201,-3.952026,-0.026794,-0.059335,0.000000,-4.563707
48,0.480000,48,7.580811,-4.791748,-26.925781,1.571594,-0.713043,-4.305176,-0.026482,-0.058368,0.000000,-4.874544
49,0.490000,49,7.343750,-3.840576,-26.554688,1.617371,-0.668152,-3.733521,-0.025161,-0.060907,0.000000,-4.277442
50,0.500000,50,7.642334,-4.329346,-26.164062,1.559570,-0.708405,-3.935181,-0.027075,-0.059607,0.000000,-4.507939
51,0.510000,51,7.395752,-4.980713,-26.666016,1.529724,-0.718353,-3.481445,-0.026939,-0.057366,0.000000,-4.039886
52,0.520000,52,8.189941,-4.564697,-26.677734,1.519531,-0.694702,-4.069824,-0.026041,-0.056959,0.000000,-4.655180
53,0.530000,53,7.797607,-4.109619,-26.553711,1.531494,-0.751923,-4.187500,-0.028317,-0.057675,0.000000,-4.753602
54,0.540000,54,7.580566,-4.760986,-26.797852,1.593811,-0.640930,-3.918457,-0.023917,-0.059475,0.000000,-4.483183
55,0.550000,55,7.521729,-4.699707,-27.183594,1.615784,-0.714905,-4.036377,-0.026299,-0.059440,0.000000,-4.607064
56,0.560000,56,7.280762,-4.365234,-27.058594,1.538269,-0.720367,-4.086670,-0.026623,-0.056850,0.000000,-4.616791
57,0.570000,57,7.494141,-4.115234,-26.679688,1.554871,-0.664978,-3.666260,-0.024925,-0.058279,0.000000,-4.205583
58,0.580000,58,7.343018,-4.056152,-26.807617,1.669067,-0.717163,-3.615967,-0.026752,-0.062261,0.000000,-4.181661
59,0.590000,59,7.419434,-5.597656,-26.398438,1.590820,-0.719208,-3.414185,-0.027244,-0.060262,0.000000,-4.013798
60,0.600000,60,8.430176,-5.053223,-26.927734,1.485474,-0.618225,-3.582397,-0.022959,-0.055165,0.000000,-4.163465
61,0.610000,61,8.797363,-4.614990,-26.552734,1.589844,-0.749359,-3.397339,-0.028222,-0.059875,0.000000,-4.054323
62,0.620000,62,8.219727,-4.748535,-26.931641,1.662842,-0.694916,-3.851318,-0.025803,-0.061743,0.000000,-4.481356
63,0.630000,63,6.826660,-4.280273,-27.442383,1.559631,-0.661804,-3.431152,-0.024116,-0.056833,0.000000,-3.922355
64,0.640000,64,7.617188,-4.020020,-26.809570,1.483276,-0.733276,-3.867920,-0.027351,-0.055326,0.000000,-4.399304
65,0.650000,65,7.885254,-4.632080,-26.673828,1.521240,-0.751373,-3.565552,-0.028169,-0.057031,0.000000,-4.145738
66,0.660000,66,7.281250,-4.119141,-26.678711,1.554993,-0.694946,-3.784058,-0.026049,-0.058286,0.000000,-4.315750
67,0.670000,67,6.978027,-4.370117,-27.442383,1.515625,-0.825317,-4.103271,-0.030075,-0.055229,0.000000,-4.620092
68,0.680000,68,7.032959,-4.833008,-26.921875,1.618835,-0.776459,-3.800903,-0.028841,-0.060131,0.000000,-4.363191
69,0.690000,69,7.248291,-4.673828,-27.182617,1.476624,-0.674652,-4.288330,-0.024819,-0.054322,0.000000,-4.798075
70,0.700000,70,7.220703,-3.935913,-26.424805,1.550354,-0.767334,-4.305176,-0.029038,-0.058670,0.000000,-4.843110
71,0.710000,71,7.491943,-4.423340,-26.803711,1.539429,-0.761993,-4.389160,-0.028429,-0.057433,0.000000,-4.945198
72,0.720000,72,6.912354,-4.619629,-26.795898,1.590454,-0.707153,-3.498169,-0.026390,-0.059354,0.000000,-4.030361
73,0.730000,73,8.376953,-3.913818,-26.431641,1.595764,-0.639099,-3.952026,-0.024179,-0.060373,0.000000,-4.552404
74,0.740000,74,8.011719,-4.135986,-26.811523,1.578491,-0.722565,-4.103271,-0.026950,-0.058874,0.000000,-4.686414
75,0.750000,75,7.798828,-4.047607,-26.682617,1.553162,-0.704071,-3.699951,-0.026387,-0.058209,0.000000,-4.260715
76,0.760000,76,8.004395,-5.061035,-26.924805,1.624268,-0.654083,-3.884888,-0.024293,-0.060326,0.000000,-4.490709
77,0.770000,77,7.670410,-5.036377,-27.050781,1.600708,-0.687592,-4.052979,-0.025419,-0.059174,0.000000,-4.634886
78,0.780000,78,7.430420,-4.701172,-27.183594,1.569641,-0.669617,-4.338867,-0.024633,-0.057742,0.000000,-4.883721
79,0.790000,79,6.757812,-5.084473,-27.172852,1.579041,-0.689697,-4.002441,-0.025382,-0.058111,0.000000,-4.524198
80,0.800000,80,7.492920,-4.330811,-26.804688,1.583374,-0.761658,-3.683228,-0.028415,-0.059071,0.000000,-4.248901
81,0.810000,81,7.089844,-5.202148,-26.787109,1.604675,-0.656128,-3.867920,-0.024494,-0.059905,0.000000,-4.420058
82,0.820000,82,7.854736,-4.816895,-27.055664,1.595398,-0.729553,-3.868164,-0.026965,-0.058967,0.000000,-4.461223
83,0.830000,83,7.299805,-5.691162,-27.038086,1.662964,-0.724030,-3.649658,-0.026778,-0.061504,0.000000,-4.251028
84,0.840000,84,7.270508,-5.507080,-26.912109,1.589111,-0.724060,-3.952271,-0.026905,-0.059048,0.000000,-4.529747
85,0.850000,85,7.279053,-4.550293,-27.056641,1.681335,-0.792725,-4.069824,-0.029299,-0.062141,0.000000,-4.655472
86,0.860000,86,8.611328,-5.265137,-27.054688,1.559998,-0.709717,-4.187500,-0.026233,-0.057661,0.000000,-4.822155
87,0.870000,87,9.095703,-5.257080,-26.543945,1.605469,-0.647247,-3.901733,-0.024384,-0.060483,0.000000,-4.580061
88,0.880000,88,8.367676,-5.085693,-26.669922,1.624573,-0.691345,-3.935181,-0.025922,-0.060914,0.000000,-4.576722
89,0.890000,89,7.884277,-4.970215,-27.182617,1.622375,-0.801300,-4.238037,-0.029478,-0.059684,0.000000,-4.855119
90,0.900000,90,8.609375,-5.266602,-26.541016,1.559509,-0.684906,-4.052734,-0.025806,-0.058758,0.000000,-4.694516
91,0.910000,91,8.276855,-4.995117,-26.542969,1.552979,-0.717346,-3.952026,-0.027026,-0.058508,0.000000,-4.571287
92,0.920000,92,8.211914,-5.888916,-27.425781,1.598694,-0.699707,-4.086670,-0.025513,-0.058292,0.000000,-4.715598
93,0.930000,93,8.331543,-5.857422,-26.786133,1.620483,-0.647186,-4.170654,-0.024161,-0.060497,0.000000,-4.816211
94,0.940000,94,8.001953,-5.154785,-26.538086,1.649353,-0.725555,-3.666260,-0.027340,-0.062150,0.000000,-4.304517
95,0.950000,95,8.670898,-5.111328,-26.415039,1.532532,-0.682465,-3.918457,-0.025836,-0.058017,0.000000,-4.553577
96,0.960000,96,8.154785,-5.089844,-26.668945,1.578552,-0.649475,-3.851196,-0.024353,-0.059191,0.000000,-4.457838
97,0.970000,97,8.155273,-5.181641,-26.923828,1.673401,-0.698090,-3.884888,-0.025928,-0.062153,0.000000,-4.526115
98,0.980000,98,8.547852,-5.513672,-26.920898,1.589050,-0.688110,-4.238037,-0.025560,-0.059027,0.000000,-4.883520
99,0.990000,99,8.122559,-5.214355,-26.409180,1.627563,-0.698242,-3.935181,-0.026439,-0.061629,0.000000,-4.573627
100,1.000000,100,7.663574,-5.777344,-26.911133,1.687988,-0.665985,-3.901733,-0.024748,-0.062725,0.000000,-4.525403
101,1.010000,101,8.274902,-5.303467,-26.666016,1.583740,-0.694672,-3.851196,-0.026051,-0.059392,0.000000,-4.480817
102,1.020000,102,8.213379,-5.550537,-27.046875,1.705566,-0.650055,-3.985718,-0.024034,-0.063060,0.000000,-4.637054
103,1.030000,103,7.182617,-5.230469,-27.172852,1.628784,-0.797852,-4.238037,-0.029362,-0.059942,0.000000,-4.822152
104,1.040000,104,7.972900,-5.246338,-27.049805,1.605774,-0.727600,-4.187500,-0.026899,-0.059364,0.000000,-4.801919
105,1.050000,105,7.484863,-5.501953,-27.298828,1.566101,-0.694733,-4.204346,-0.025449,-0.057369,0.000000,-4.773764
106,1.060000,106,7.702881,-4.666260,-26.799805,1.591431,-0.780731,-4.069824,-0.029132,-0.059382,0.000000,-4.663175
107,1.070000,107,7.214844,-4.829590,-26.794922,1.549316,-0.747101,-3.834351,-0.027882,-0.057821,0.000000,-4.386181
108,1.080000,108,7.764404,-4.848877,-27.311523,1.550232,-0.732697,-3.985718,-0.026827,-0.056761,0.000000,-4.556517
109,1.090000,109,8.250488,-4.748047,-26.931641,1.570435,-0.694061,-3.582397,-0.025771,-0.058312,0.000000,-4.185862
110,1.100000,110,8.156250,-5.088867,-26.924805,1.486328,-0.745605,-4.052979,-0.027692,-0.055203,0.000000,-4.644149
111,1.110000,111,7.643066,-4.605225,-26.929688,1.567017,-0.758545,-3.464722,-0.028168,-0.058189,0.000000,-4.039184
112,1.120000,112,8.492188,-4.713379,-26.547852,1.546143,-0.686432,-3.767090,-0.025856,-0.058240,0.000000,-4.383544
113,1.129000,113,7.398438,-4.457275,-26.289062,1.585938,-0.715912,-3.464600,-0.027232,-0.060327,0.000000,-4.032306
114,1.139000,114,8.036133,-4.722168,-26.544922,1.592529,-0.651459,-3.733521,-0.024542,-0.059994,0.000000,-4.331529
115,1.149000,115,7.184570,-4.860840,-26.921875,1.527039,-0.772247,-3.464722,-0.028685,-0.056721,0.000000,-4.011671
116,1.159000,116,7.490967,-4.608154,-26.928711,1.613342,-0.691071,-3.784058,-0.025663,-0.059912,0.000000,-4.351112
117,1.169000,117,7.859619,-4.169189,-26.938477,1.510193,-0.751068,-4.086670,-0.027881,-0.056061,0.000000,-4.643527
118,1.179000,118,7.879883,-5.310547,-26.791992,1.561035,-0.729950,-3.952026,-0.027245,-0.058265,0.000000,-4.555834
119,1.189000,119,7.277344,-4.643555,-26.797852,1.544739,-0.696960,-4.069824,-0.026008,-0.057644,0.000000,-4.610090
120,1.199000,120,7.794922,-4.571777,-26.802734,1.635315,-0.682190,-3.851196,-0.025452,-0.061013,0.000000,-4.443150
121,1.209000,121,7.461426,-4.270508,-26.419922,1.558411,-0.689880,-3.750366,-0.026112,-0.058986,0.000000,-4.301999
122,1.219000,122,6.827881,-4.003174,-27.190430,1.645020,-0.780029,-3.985718,-0.028688,-0.060500,0.000000,-4.513646
123,1.229000,123,7.165527,-3.381348,-26.561523,1.513733,-0.719513,-3.498169,-0.027089,-0.056990,0.000000,-3.998126
124,1.240000,124,7.374268,-3.901489,-26.681641,1.549622,-0.715546,-3.851196,-0.026818,-0.058078,0.000000,-4.384110
125,1.250000,125,6.523926,-3.824829,-26.805664,1.524902,-0.763397,-3.817627,-0.028479,-0.056887,0.000000,-4.297683
126,1.260000,126,6.279785,-3.952637,-26.930664,1.551270,-0.746948,-4.086670,-0.027736,-0.057602,0.000000,-4.558031
127,1.270000,127,6.033203,-4.358398,-26.921875,1.561218,-0.779083,-3.717041,-0.028939,-0.057991,0.000000,-4.193037
128,1.280000,128,7.522949,-4.483887,-27.058594,1.541077,-0.785706,-3.884888,-0.029037,-0.056953,0.000000,-4.443544
129,1.290000,129,7.582520,-4.636963,-27.056641,1.591064,-0.760590,-3.817871,-0.028111,-0.058805,0.000000,-4.394110
130,1.300000,130,6.968506,-5.173584,-26.787109,1.650208,-0.707306,-3.363770,-0.026405,-0.061605,0.000000,-3.929668
131,1.310000,131,6.975342,-4.371582,-26.799805,1.538208,-0.752441,-3.784058,-0.028076,-0.057396,0.000000,-4.307154
132,1.320000,132,6.089111,-4.789795,-26.659180,1.617737,-0.802368,-3.447754,-0.030097,-0.060682,0.000000,-3.961414
133,1.330000,133,7.429199,-4.456299,-26.416992,1.609131,-0.739258,-3.515015,-0.027984,-0.060913,0.000000,-4.092253
134,1.340000,134,6.454346,-4.967041,-27.043945,1.552979,-0.817291,-3.884888,-0.030221,-0.057424,0.000000,-4.405632
135,1.350000,135,6.672852,-4.069336,-26.545898,1.530701,-0.783417,-3.531860,-0.029512,-0.057662,0.000000,-4.036726
136,1.360000,136,6.699463,-4.562256,-26.666992,1.612061,-0.784485,-3.968750,-0.029418,-0.060452,0.000000,-4.507955
137,1.370000,137,6.452637,-5.274902,-27.295898,1.606934,-0.818787,-3.447998,-0.029997,-0.058871,0.000000,-3.986100
138,1.379000,138,7.089355,-5.018311,-26.278320,1.599731,-0.750275,-3.431030,-0.028551,-0.060876,0.000000,-4.005883
139,1.389000,139,7.579102,-4.731201,-26.414062,1.569641,-0.759827,-3.565552,-0.028766,-0.059424,0.000000,-4.152033
140,1.399000,140,7.944824,-4.570068,-26.291016,1.634827,-0.748779,-3.699951,-0.028480,-0.062182,0.000000,-4.324133
141,1.409000,141,8.128906,-4.565918,-26.676758,1.565857,-0.696411,-3.632690,-0.026106,-0.058697,0.000000,-4.229032
142,1.419000,142,8.647461,-4.585938,-27.065430,1.589661,-0.682648,-4.120361,-0.025222,-0.058734,0.000000,-4.743928
143,1.429000,143,8.703125,-4.833252,-26.291992,1.548767,-0.656494,-3.935181,-0.024969,-0.058906,0.000000,-4.568534
144,1.439000,144,8.434570,-4.313721,-26.426758,1.513123,-0.686584,-3.817627,-0.025981,-0.057257,0.000000,-4.412640
145,1.449000,145,7.272705,-5.260010,-26.916016,1.629272,-0.771027,-3.733765,-0.028646,-0.060532,0.000000,-4.324670
146,1.459000,146,6.758057,-4.991943,-27.045898,1.553589,-0.784851,-3.615967,-0.029019,-0.057443,0.000000,-4.149030
147,1.470000,147,6.306885,-4.353027,-26.923828,1.607178,-0.795319,-3.834595,-0.029540,-0.059694,0.000000,-4.339661
148,1.480000,148,6.672363,-3.885376,-26.036133,1.571838,-0.781952,-3.699951,-0.030033,-0.060371,0.000000,-4.219462
149,1.490000,149,7.396973,-5.041260,-27.176758,1.531677,-0.767365,-4.052979,-0.028236,-0.056360,0.000000,-4.612216
150,1.500000,150,6.911377,-4.651123,-26.538086,1.637146,-0.754639,-3.683228,-0.028436,-0.061690,0.000000,-4.241853
151,1.510000,151,7.276611,-4.766357,-26.923828,1.570984,-0.817200,-4.238037,-0.030352,-0.058349,0.000000,-4.807292
152,1.520000,152,7.091553,-5.201416,-27.172852,1.581848,-0.824249,-4.355713,-0.030334,-0.058214,0.000000,-4.926320
153,1.530000,153,7.242188,-5.015137,-26.407227,1.576660,-0.746216,-4.103271,-0.028258,-0.059706,0.000000,-4.677389
154,1.540000,154,6.660889,-5.457764,-26.524414,1.656921,-0.788116,-3.851196,-0.029713,-0.062468,0.000000,-4.429453
155,1.550000,155,7.794434,-4.510742,-26.546875,1.587463,-0.657562,-3.968750,-0.024770,-0.059799,0.000000,-4.546576
156,1.560000,156,8.765137,-5.015625,-26.930664,1.530701,-0.680450,-4.103271,-0.025267,-0.056839,0.000000,-4.728198
157,1.570000,157,8.219727,-4.687256,-26.803711,1.591919,-0.718414,-3.733521,-0.026803,-0.059392,0.000000,-4.347336
158,1.580000,158,8.189941,-4.564697,-26.677734,1.519531,-0.694702,-3.733521,-0.026041,-0.056959,0.000000,-4.318877
159,1.590000,159,8.370605,-4.777100,-26.675781,1.478516,-0.666412,-3.649414,-0.024982,-0.055425,0.000000,-4.232699
160,1.600000,160,6.781738,-5.854980,-27.160156,1.597900,-0.787170,-3.851318,-0.028983,-0.058833,0.000000,-4.419997
161,1.610000,161,7.517578,-4.824707,-26.411133,1.571899,-0.737885,-4.019287,-0.027938,-0.059517,0.000000,-4.601502
162,1.620000,162,7.882324,-4.879150,-26.541992,1.596375,-0.728088,-3.683228,-0.027432,-0.060145,0.000000,-4.291154
163,1.629000,163,8.031738,-5.277100,-26.664062,1.583130,-0.653534,-3.867920,-0.024510,-0.059373,0.000000,-4.474131
164,1.639000,164,8.553711,-4.681152,-26.677734,1.522278,-0.684845,-3.985718,-0.025671,-0.057062,0.000000,-4.593977
165,1.649000,165,7.759766,-5.250488,-27.047852,1.559753,-0.637939,-3.968994,-0.023586,-0.057666,0.000000,-4.540308
166,1.659000,166,8.374512,-4.191650,-26.427734,1.510193,-0.687866,-3.985718,-0.026028,-0.057144,0.000000,-4.573374
167,1.669000,167,8.011230,-4.350830,-27.192383,1.514771,-0.747894,-3.985718,-0.027504,-0.055706,0.000000,-4.551653
168,1.679000,168,7.275146,-4.951660,-26.921875,1.621765,-0.674286,-3.615967,-0.025046,-0.060240,0.000000,-4.178239
169,1.690000,169,7.064941,-4.862061,-27.434570,1.619995,-0.800415,-4.103271,-0.029175,-0.059049,0.000000,-4.662305
170,1.700000,170,7.618164,-3.957886,-26.939453,1.597412,-0.781158,-4.322021,-0.028997,-0.059296,0.000000,-4.888517
171,1.710000,171,7.649170,-3.772827,-26.686523,1.546387,-0.755280,-4.204346,-0.028302,-0.057946,0.000000,-4.754365
172,1.720000,172,8.282715,-4.346924,-26.681641,1.560425,-0.691376,-4.019287,-0.025912,-0.058483,0.000000,-4.616323
173,1.730000,173,7.700439,-5.005127,-26.922852,1.530518,-0.758179,-4.137207,-0.028161,-0.056848,0.000000,-4.715914
174,1.740000,174,7.978027,-4.199707,-26.167969,1.510193,-0.746399,-4.052734,-0.028523,-0.057712,0.000000,-4.632948
175,1.750000,175,8.069336,-4.688965,-27.187500,1.523010,-0.747314,-4.271484,-0.027487,-0.056019,0.000000,-4.852407
176,1.760000,176,7.635254,-5.377197,-26.660156,1.585571,-0.760773,-3.699951,-0.028536,-0.059473,0.000000,-4.307489
177,1.770000,177,7.668213,-5.099121,-26.666016,1.625000,-0.758942,-4.052734,-0.028461,-0.060939,0.000000,-4.665154
178,1.780000,178,7.526611,-3.959961,-26.811523,1.528015,-0.783508,-3.985718,-0.029223,-0.056991,0.000000,-4.530388
179,1.790000,179,7.702148,-4.635742,-26.543945,1.544312,-0.732330,-3.784058,-0.027589,-0.058179,0.000000,-4.360061
180,1.800000,180,8.123535,-5.213623,-26.666992,1.489197,-0.698669,-4.170654,-0.026200,-0.055844,0.000000,-4.760902
181,1.810000,181,8.401855,-4.745361,-26.804688,1.500916,-0.689575,-4.338867,-0.025726,-0.055995,0.000000,-4.931404
182,1.820000,182,8.339844,-4.808594,-26.673828,1.525452,-0.739136,-4.288330,-0.027710,-0.057189,0.000000,-4.898525
183,1.830000,183,7.452148,-5.227783,-26.148438,1.581543,-0.740509,-3.851196,-0.028319,-0.060483,0.000000,-4.449975
184,1.840000,184,7.546875,-4.947510,-26.410156,1.574951,-0.761414,-4.019287,-0.028830,-0.059634,0.000000,-4.611978
185,1.850000,185,7.183594,-4.922852,-26.792969,1.643982,-0.652618,-3.918457,-0.024358,-0.061359,0.000000,-4.479143
186,1.860000,186,7.936035,-5.926270,-26.910156,1.599182,-0.706604,-3.968994,-0.026258,-0.059427,0.000000,-4.596218
187,1.870000,187,6.874268,-5.576416,-26.909180,1.590820,-0.783203,-4.187500,-0.029105,-0.059118,0.000000,-4.756198
188,1.879000,188,7.544678,-5.133057,-26.279297,1.602478,-0.785706,-3.918457,-0.029898,-0.060979,0.000000,-4.531991
189,1.889000,189,7.424072,-5.134766,-26.534180,1.602722,-0.646027,-3.699951,-0.024347,-0.060402,0.000000,-4.273397
190,1.899000,190,7.579834,-4.730957,-26.541992,1.546631,-0.736115,-4.069824,-0.027734,-0.058271,0.000000,-4.642717
191,1.909000,191,8.211426,-5.674316,-26.788086,1.569824,-0.673920,-4.170654,-0.025157,-0.058602,0.000000,-4.794608
192,1.919000,192,6.602539,-5.181396,-26.527344,1.511536,-0.764984,-3.901733,-0.028838,-0.056980,0.000000,-4.427367
193,1.929000,193,7.277344,-4.827637,-27.180664,1.572754,-0.746063,-4.052979,-0.027448,-0.057863,0.000000,-4.606578
194,1.940000,194,7.156250,-4.706787,-27.053711,1.592773,-0.748871,-3.901733,-0.027681,-0.058874,0.000000,-4.453342
195,1.950000,195,7.758545,-5.250977,-26.791992,1.559509,-0.685364,-3.565552,-0.025581,-0.058208,0.000000,-4.151486
196,1.960000,196,7.907959,-5.649170,-26.914062,1.546326,-0.730469,-3.935425,-0.027141,-0.057454,0.000000,-4.543093
197,1.970000,197,7.790771,-5.003906,-26.667969,1.576477,-0.731262,-3.952026,-0.027421,-0.059115,0.000000,-4.549790
198,1.980000,198,7.150146,-5.385498,-27.041992,1.563110,-0.751160,-3.481567,-0.027778,-0.057803,0.000000,-4.044464
199,1.990000,199,7.668945,-5.374756,-27.431641,1.493774,-0.761200,-4.238037,-0.027749,-0.054454,0.000000,-4.804790
200,2.000000,200,7.786865,-5.466797,-26.660156,1.587769,-0.661072,-4.120117,-0.024796,-0.059556,0.000000,-4.719427
201,2.009000,201,7.237793,-5.754395,-26.908203,1.641357,-0.701752,-3.733765,-0.026079,-0.060998,0.000000,-4.325330
202,2.020000,202,6.903076,-5.699219,-26.778320,1.524475,-0.734711,-4.120117,-0.027437,-0.056929,0.000000,-4.669474
203,2.029000,203,6.502686,-6.354492,-26.893555,1.656067,-0.724365,-4.389160,-0.026935,-0.061579,0.000000,-4.960742
204,2.040000,204,7.360840,-5.782227,-27.292969,1.572998,-0.675171,-3.868164,-0.024738,-0.057634,0.000000,-4.435438
205,2.049000,205,7.214355,-4.891357,-26.793945,1.550842,-0.723419,-4.052734,-0.026999,-0.057880,0.000000,-4.602367
206,2.060000,206,7.850342,-5.433350,-27.302734,1.610596,-0.732147,-3.851318,-0.026816,-0.058990,0.000000,-4.460113
207,2.069000,207,8.369629,-5.023193,-26.927734,1.484680,-0.763397,-3.834595,-0.028350,-0.055136,0.000000,-4.438467
208,2.080000,208,7.081787,-6.219971,-26.900391,1.560303,-0.803345,-4.036377,-0.029864,-0.058003,0.000000,-4.632893
209,2.089000,209,7.580811,-4.853027,-27.053711,1.503845,-0.737396,-3.935425,-0.027257,-0.055587,0.000000,-4.489100
210,2.100000,210,7.882324,-4.879150,-26.541992,1.550232,-0.775940,-3.750366,-0.029234,-0.058407,0.000000,-4.353386
211,2.109000,211,8.271484,-6.134277,-27.550781,1.581726,-0.770813,-4.036377,-0.027978,-0.057411,0.000000,-4.682878
212,2.120000,212,7.841553,-6.482422,-27.286133,1.590088,-0.735687,-4.187500,-0.026962,-0.058275,0.000000,-4.819242
213,2.129000,213,8.148438,-5.830566,-26.528320,1.619629,-0.651794,-4.153809,-0.024570,-0.061053,0.000000,-4.794549
214,2.140000,214,7.781250,-6.176025,-26.777344,1.582153,-0.735474,-4.187500,-0.027466,-0.059086,0.000000,-4.816892
215,2.149000,215,8.429199,-5.114990,-26.797852,1.602356,-0.737854,-4.086670,-0.027534,-0.059794,0.000000,-4.731524
216,2.160000,216,7.789062,-5.220215,-26.664062,1.674194,-0.755951,-3.952026,-0.028351,-0.062788,0.000000,-4.589087
217,2.169000,217,8.119141,-6.014404,-27.166992,1.601624,-0.750061,-4.036377,-0.027609,-0.058955,0.000000,-4.681092
218,2.180000,218,7.116699,-5.817627,-27.163086,1.596863,-0.801575,-3.968994,-0.029510,-0.058788,0.000000,-4.559047
219,2.189000,219,7.328613,-5.752686,-26.780273,1.618042,-0.698975,-4.237793,-0.026100,-0.060419,0.000000,-4.830729
220,2.200000,220,7.177734,-5.693848,-26.909180,1.639893,-0.727203,-4.120361,-0.027024,-0.060942,0.000000,-4.711658
221,2.209000,221,8.367676,-5.392578,-27.307617,1.563354,-0.765320,-4.204346,-0.028026,-0.057250,0.000000,-4.834525
222,2.220000,222,8.000488,-5.708008,-27.299805,1.617310,-0.680878,-4.103271,-0.024941,-0.059243,0.000000,-4.719603
223,2.229000,223,8.121094,-5.737061,-27.171875,1.641052,-0.749115,-4.019531,-0.027569,-0.060395,0.000000,-4.668175
224,2.240000,224,8.177734,-5.953125,-26.526367,1.668823,-0.818817,-3.683228,-0.030868,-0.062912,0.000000,-4.381465
225,2.250000,225,7.327148,-5.600098,-26.140625,1.544495,-0.817017,-3.851196,-0.031255,-0.059084,0.000000,-4.459143
226,2.259000,226,7.965820,-5.987305,-26.910156,1.600769,-0.753845,-4.036377,-0.028013,-0.059486,0.000000,-4.677954
227,2.270000,227,7.207764,-5.969727,-27.417969,1.600830,-0.728180,-4.204346,-0.026558,-0.058386,0.000000,-4.783726
228,2.279000,228,8.242676,-5.427734,-26.407227,1.586548,-0.743347,-4.052734,-0.028149,-0.060080,0.000000,-4.700742
229,2.290000,229,8.029297,-5.677490,-26.915039,1.639282,-0.703217,-4.153809,-0.026127,-0.060906,0.000000,-4.791177
230,2.299000,230,7.814209,-5.744385,-26.527344,1.571411,-0.780579,-4.086670,-0.029425,-0.059237,0.000000,-4.718595
231,2.310000,231,8.514160,-5.608154,-26.278320,1.567627,-0.712067,-3.851196,-0.027097,-0.059655,0.000000,-4.511071
232,2.319000,232,8.481934,-5.947266,-26.657227,1.599487,-0.738739,-4.355713,-0.027713,-0.060002,0.000000,-5.029459
233,2.330000,233,8.333496,-5.518555,-26.534180,1.612000,-0.693420,-4.439697,-0.026133,-0.060752,0.000000,-5.090189
234,2.339000,234,8.246094,-5.180176,-26.795898,1.603943,-0.719238,-4.153809,-0.026841,-0.059858,0.000000,-4.786444
235,2.350000,235,8.182129,-5.490234,-26.662109,1.588318,-0.793549,-4.254639,-0.029763,-0.059572,0.000000,-4.905472
236,2.359000,236,7.722412,-6.053467,-27.035156,1.579407,-0.737213,-4.288330,-0.027269,-0.058420,0.000000,-4.904547
237,2.370000,237,7.729736,-4.943848,-26.540039,1.597961,-0.780365,-4.086670,-0.029403,-0.060209,0.000000,-4.697439
238,2.379000,238,7.243896,-4.799072,-26.410156,1.617554,-0.769440,-4.086670,-0.029134,-0.061247,0.000000,-4.670157
239,2.390000,239,7.669189,-4.975586,-26.666992,1.529602,-0.710632,-4.237793,-0.026648,-0.057359,0.000000,-4.810284
240,2.399000,240,7.297852,-5.600098,-26.397461,1.590942,-0.770477,-4.389160,-0.029188,-0.060269,0.000000,-4.992446
241,2.410000,241,7.608398,-5.038330,-26.793945,1.554382,-0.712830,-4.153809,-0.026604,-0.058012,0.000000,-4.729231
242,2.419000,242,7.190186,-4.458496,-27.442383,1.563965,-0.795685,-4.590820,-0.028995,-0.056991,0.000000,-5.129868
243,2.430000,243,7.643311,-4.635742,-27.057617,1.637146,-0.734924,-4.254883,-0.027161,-0.060506,0.000000,-4.843262
244,2.439000,244,8.002441,-5.338379,-27.048828,1.608032,-0.751038,-4.523682,-0.027766,-0.059449,0.000000,-5.147646
245,2.450000,245,7.236816,-5.693604,-26.524414,1.662598,-0.796661,-4.288330,-0.030035,-0.062682,0.000000,-4.912954
246,2.459000,246,7.271729,-5.107178,-26.406250,1.578918,-0.793549,-4.271484,-0.030052,-0.059793,0.000000,-4.859764
247,2.470000,247,7.001953,-4.772461,-26.666016,1.570984,-0.824463,-4.136963,-0.030918,-0.058913,0.000000,-4.697027
248,2.480000,248,7.120850,-5.446777,-27.425781,1.680420,-0.728973,-4.271484,-0.026580,-0.061272,0.000000,-4.852564
249,2.490000,249,7.094727,-4.892334,-27.306641,1.643677,-0.727753,-4.137207,-0.026651,-0.060193,0.000000,-4.694648
250,2.500000,250,7.486572,-4.948242,-26.537109,1.505737,-0.739380,-4.775879,-0.027862,-0.056741,0.000000,-5.338542
251,2.509000,251,7.671631,-4.513672,-26.290039,1.541138,-0.732361,-4.590820,-0.027857,-0.058621,0.000000,-5.166273
252,2.520000,252,7.974854,-4.815674,-26.671875,1.571838,-0.749390,-4.237793,-0.028097,-0.058932,0.000000,-4.843074
253,2.529000,253,8.131836,-4.287842,-26.809570,1.489746,-0.743591,-4.691650,-0.027736,-0.055568,0.000000,-5.262446
254,2.540000,254,8.463867,-4.743652,-27.060547,1.501038,-0.712219,-4.641357,-0.026319,-0.055470,0.000000,-5.235695
255,2.549000,255,7.061523,-4.925537,-26.663086,1.574646,-0.751526,-4.338867,-0.028186,-0.059057,0.000000,-4.894732
256,2.560000,256,8.034668,-4.937744,-26.669922,1.620972,-0.700256,-4.422852,-0.026256,-0.060779,0.000000,-5.040838
257,2.569000,257,7.431152,-4.301758,-26.547852,1.490051,-0.786743,-4.876709,-0.029635,-0.056127,0.000000,-5.421280
258,2.580000,258,8.011719,-4.227783,-27.066406,1.580933,-0.723267,-4.691650,-0.026722,-0.058409,0.000000,-5.272585
259,2.589000,259,8.132812,-4.318115,-27.066406,1.490723,-0.768005,-4.607910,-0.028375,-0.055076,0.000000,-5.178363
260,2.600000,260,8.010254,-4.474365,-27.191406,1.610168,-0.796112,-4.372314,-0.029278,-0.059216,0.000000,-4.977651
261,2.609000,261,7.584229,-4.298340,-26.805664,1.582520,-0.687195,-4.086670,-0.025636,-0.059037,0.000000,-4.644611
262,2.620000,262,8.104980,-3.918091,-26.815430,1.619385,-0.719208,-4.305176,-0.026821,-0.060390,0.000000,-4.899722
263,2.629000,263,9.500977,-4.261719,-26.819336,1.535156,-0.657135,-4.187500,-0.024502,-0.057241,0.000000,-4.835764
264,2.640000,264,8.109863,-3.301147,-26.825195,1.558044,-0.669281,-4.204346,-0.024950,-0.058081,0.000000,-4.757740
265,2.649000,265,8.885254,-4.983643,-26.546875,1.552673,-0.700195,-4.540527,-0.026376,-0.058488,0.000000,-5.191656
266,2.660000,266,8.316406,-4.129883,-26.941406,1.555298,-0.762024,-4.406250,-0.028284,-0.057729,0.000000,-5.003159
267,2.669000,267,7.583008,-4.391113,-26.675781,1.607788,-0.711212,-3.851196,-0.026661,-0.060271,0.000000,-4.425308
268,2.680000,268,8.187012,-4.934814,-26.670898,1.528564,-0.791626,-4.523682,-0.029681,-0.057312,0.000000,-5.139368
269,2.690000,269,7.706787,-4.510498,-27.445312,1.565125,-0.805267,-4.540527,-0.029341,-0.057027,0.000000,-5.112364
270,2.700000,270,8.222168,-4.286621,-26.553711,1.535706,-0.716644,-4.641357,-0.026988,-0.057834,0.000000,-5.232567
271,2.710000,271,8.191895,-4.471680,-26.934570,1.656128,-0.694824,-4.221191,-0.025797,-0.061487,0.000000,-4.840242
272,2.720000,272,7.184082,-4.922607,-26.920898,1.574829,-0.820312,-4.708740,-0.030471,-0.058498,0.000000,-5.278995
273,2.730000,273,7.638184,-5.252930,-27.047852,1.606018,-0.689209,-4.322021,-0.025481,-0.059377,0.000000,-4.909404
274,2.740000,274,7.815186,-5.651855,-26.528320,1.569153,-0.756256,-4.406250,-0.028508,-0.059150,0.000000,-5.029639
275,2.750000,275,7.929688,-6.482422,-26.516602,1.635559,-0.779602,-4.305176,-0.029401,-0.061681,0.000000,-4.984870
276,2.759000,276,7.417725,-6.028809,-26.776367,1.624817,-0.745270,-4.607910,-0.027833,-0.060681,0.000000,-5.225825
277,2.770000,277,7.820312,-5.034668,-26.538086,1.554016,-0.730286,-4.372314,-0.027518,-0.058558,0.000000,-4.968802
278,2.779000,278,7.633545,-5.439697,-26.274414,1.563721,-0.832062,-4.322021,-0.031668,-0.059515,0.000000,-4.948596
279,2.790000,279,7.569824,-5.995361,-26.778320,1.623962,-0.716919,-4.305176,-0.026772,-0.060645,0.000000,-4.924755
280,2.799000,280,7.420410,-5.566650,-26.527344,1.613281,-0.719299,-3.968750,-0.027115,-0.060816,0.000000,-4.570970
281,2.810000,281,7.423828,-5.165527,-26.534180,1.603455,-0.646088,-3.767090,-0.024349,-0.060430,0.000000,-4.341487
282,2.819000,282,7.635010,-5.346680,-26.533203,1.607849,-0.736481,-4.271484,-0.027757,-0.060598,0.000000,-4.882555
283,2.830000,283,7.790039,-5.188721,-26.920898,1.581238,-0.660553,-4.372314,-0.024537,-0.058736,0.000000,-4.957188
284,2.839000,284,7.452637,-5.718506,-27.295898,1.571411,-0.815979,-4.607910,-0.029894,-0.057569,0.000000,-5.207903
285,2.850000,285,8.120605,-5.676025,-26.915039,1.593140,-0.796356,-4.338867,-0.029588,-0.059191,0.000000,-4.987479
286,2.859000,286,7.608154,-5.253174,-27.175781,1.490662,-0.761993,-4.422852,-0.028039,-0.054853,0.000000,-4.987474
287,2.870000,287,8.210938,-5.613281,-26.532227,1.614319,-0.721130,-4.271484,-0.027179,-0.060844,0.000000,-4.923634
288,2.879000,288,7.786865,-5.405518,-26.533203,1.655457,-0.660645,-4.086670,-0.024899,-0.062392,0.000000,-4.707098
289,2.890000,289,8.638672,-5.296875,-26.411133,1.629517,-0.731781,-4.406250,-0.027707,-0.061698,0.000000,-5.086001
290,2.899000,290,8.333496,-5.518555,-26.534180,1.704346,-0.717377,-4.187500,-0.027036,-0.064232,0.000000,-4.871977
291,2.910000,291,8.090820,-5.553223,-26.789062,1.613037,-0.724792,-3.985718,-0.027056,-0.060213,0.000000,-4.623132
292,2.919000,292,7.671387,-4.851318,-26.925781,1.619202,-0.686798,-4.170654,-0.025507,-0.060136,0.000000,-4.755722
293,2.930000,293,8.219727,-4.625732,-26.676758,1.520996,-0.741882,-4.220947,-0.027810,-0.057016,0.000000,-4.818244
294,2.940000,294,8.156250,-5.088867,-26.924805,1.624939,-0.697754,-4.103271,-0.025915,-0.060351,0.000000,-4.727387
295,2.950000,295,7.549316,-5.099854,-27.306641,1.602539,-0.715607,-3.985718,-0.026206,-0.058687,0.000000,-4.562411
296,2.960000,296,8.547852,-5.237305,-26.284180,1.604858,-0.757843,-3.968750,-0.028833,-0.061058,0.000000,-4.641670
297,2.970000,297,7.791748,-4.880859,-26.669922,1.619690,-0.802643,-3.750366,-0.030095,-0.060731,0.000000,-4.370458
298,2.980000,298,7.367676,-4.734131,-26.796875,1.639343,-0.790375,-4.002441,-0.029495,-0.061177,0.000000,-4.592804
299,2.990000,299,8.149414,-5.553467,-26.275391,1.520203,-0.722198,-3.918457,-0.027486,-0.057857,0.000000,-4.542595
300,3.000000,300,7.543945,-5.164307,-26.149414,1.580017,-0.713837,-3.901733,-0.027298,-0.060423,0.000000,-4.498536
301,3.009000,301,7.429932,-4.640137,-26.927734,1.567871,-0.764648,-3.952271,-0.028396,-0.058225,0.000000,-4.516642
302,3.020000,302,8.003906,-4.907959,-26.541992,1.550903,-0.748657,-3.851196,-0.028207,-0.058432,0.000000,-4.457317
303,3.029000,303,8.793457,-4.801514,-26.036133,1.593933,-0.749054,-3.683228,-0.028770,-0.061220,0.000000,-4.359702
304,3.040000,304,7.660645,-5.993652,-26.650391,1.646851,-0.761993,-3.834351,-0.028592,-0.061795,0.000000,-4.479109
305,3.049000,305,8.555664,-4.526367,-26.808594,1.587952,-0.708496,-3.851196,-0.026428,-0.059233,0.000000,-4.477596
306,3.060000,306,8.312012,-4.869141,-27.443359,1.527588,-0.669708,-3.615967,-0.024403,-0.055663,0.000000,-4.197464
307,3.069000,307,7.731689,-4.973633,-27.051758,1.599121,-0.685638,-4.052979,-0.025345,-0.059113,0.000000,-4.636084
308,3.080000,308,8.674805,-4.771240,-26.677734,1.616943,-0.705658,-4.052734,-0.026451,-0.060610,0.000000,-4.704721
309,3.089000,309,9.283691,-4.605957,-26.427734,1.566345,-0.735382,-3.598999,-0.027826,-0.059269,0.000000,-4.277400
310,3.100000,310,8.188477,-4.657471,-26.546875,1.591003,-0.718750,-3.800903,-0.027075,-0.059932,0.000000,-4.417754
311,3.109000,311,7.574707,-5.347412,-26.660156,1.631165,-0.666656,-3.733521,-0.025006,-0.061184,0.000000,-4.330684
312,3.120000,312,8.033691,-4.938232,-26.414062,1.528442,-0.699799,-3.867920,-0.026493,-0.057865,0.000000,-4.463618
313,3.129000,313,8.916504,-4.798584,-26.292969,1.547913,-0.746094,-3.565552,-0.028376,-0.058872,0.000000,-4.226647
314,3.140000,314,9.279297,-5.222656,-26.673828,1.581665,-0.714050,-3.935181,-0.026770,-0.059297,0.000000,-4.625220
315,3.149000,315,9.219238,-5.100586,-26.546875,1.555542,-0.691132,-3.750366,-0.026034,-0.058596,0.000000,-4.423368
316,3.160000,316,8.459961,-5.114258,-26.927734,1.579346,-0.689362,-3.414307,-0.025600,-0.058651,0.000000,-4.041421
317,3.169000,317,9.186523,-5.378906,-26.542969,1.515991,-0.669037,-3.918457,-0.025206,-0.057115,0.000000,-4.578721
318,3.180000,318,8.489746,-4.776123,-26.034180,1.547180,-0.661835,-4.036133,-0.025422,-0.059429,0.000000,-4.662086
319,3.189000,319,8.822266,-5.323730,-26.669922,1.491760,-0.727203,-3.598999,-0.027267,-0.055934,0.000000,-4.237627
320,3.200000,320,8.639648,-5.143066,-26.286133,1.602539,-0.707153,-3.649414,-0.026902,-0.060965,0.000000,-4.314491
321,3.209000,321,9.400879,-5.097412,-26.419922,1.578308,-0.781525,-4.069824,-0.029581,-0.059739,0.000000,-4.782212
322,3.220000,322,8.675293,-4.832520,-26.932617,1.618652,-0.730225,-3.800903,-0.027113,-0.060100,0.000000,-4.453313
323,3.229000,323,8.768555,-4.460938,-26.682617,1.563110,-0.678101,-3.515015,-0.025414,-0.058582,0.000000,-4.142059
324,3.240000,324,8.909180,-5.601074,-26.152344,1.590454,-0.676849,-3.867920,-0.025881,-0.060815,0.000000,-4.554693
325,3.250000,325,8.425781,-5.423828,-26.666016,1.679016,-0.738678,-3.733521,-0.027701,-0.062965,0.000000,-4.414293
326,3.259000,326,8.759277,-5.633057,-26.792969,1.661133,-0.754089,-3.515015,-0.028145,-0.061999,0.000000,-4.216622
327,3.270000,327,8.674805,-5.017090,-27.186523,1.530945,-0.683441,-4.002441,-0.025139,-0.056313,0.000000,-4.617067
328,3.279000,328,9.247070,-5.500488,-26.797852,1.519226,-0.716064,-4.002441,-0.026721,-0.056692,0.000000,-4.673656
329,3.290000,329,8.395508,-5.639648,-27.046875,1.569153,-0.669128,-3.901733,-0.024740,-0.058016,0.000000,-4.528330
330,3.299000,330,8.450684,-6.163330,-26.782227,1.627930,-0.764465,-3.952026,-0.028544,-0.060784,0.000000,-4.641617
331,3.310000,331,8.940430,-5.691650,-26.664062,1.593140,-0.725006,-3.935181,-0.027190,-0.059749,0.000000,-4.624116
332,3.319000,332,8.551270,-5.051025,-26.799805,1.646912,-0.662384,-3.716797,-0.024716,-0.061452,0.000000,-4.367134
333,3.330000,333,9.122559,-5.719482,-26.537109,1.570557,-0.648010,-3.884888,-0.024419,-0.059183,0.000000,-4.564456
334,3.339000,334,8.606934,-5.666992,-26.790039,1.661987,-0.662750,-3.952026,-0.024739,-0.062038,0.000000,-4.626173
335,3.350000,335,9.123047,-5.749756,-26.664062,1.548279,-0.696136,-4.069824,-0.026108,-0.058066,0.000000,-4.749677
336,3.359000,336,9.341309,-5.067627,-26.549805,1.554688,-0.687653,-3.985718,-0.025900,-0.058557,0.000000,-4.663974
337,3.370000,337,8.700684,-5.295410,-26.668945,1.629639,-0.682648,-4.439697,-0.025597,-0.061106,0.000000,-5.106910
338,3.379000,338,8.787109,-5.725830,-26.406250,1.547546,-0.705048,-4.557373,-0.026700,-0.058605,0.000000,-5.225224
339,3.390000,339,8.642578,-4.988037,-26.672852,1.622192,-0.731171,-3.884888,-0.027413,-0.060818,0.000000,-4.547248
340,3.399000,340,8.278320,-5.116943,-27.182617,1.625854,-0.694916,-4.254883,-0.025565,-0.059812,0.000000,-4.880841
341,3.410000,341,8.458984,-5.207031,-26.796875,1.558411,-0.665497,-3.666260,-0.024835,-0.058156,0.000000,-4.287520
342,3.419000,342,8.367188,-5.270020,-26.923828,1.583130,-0.740234,-3.952271,-0.027494,-0.058800,0.000000,-4.589156
343,3.430000,343,8.157227,-5.180420,-27.437500,1.581482,-0.699005,-4.305176,-0.025476,-0.057639,0.000000,-4.907331
344,3.439000,344,8.645508,-4.709961,-26.806641,1.546265,-0.730438,-4.187500,-0.027248,-0.057682,0.000000,-4.814530
345,3.450000,345,8.427246,-5.116211,-26.285156,1.601990,-0.689087,-4.002441,-0.026216,-0.060947,0.000000,-4.650179
346,3.459000,346,7.551270,-4.668701,-26.927734,1.660950,-0.737396,-4.036377,-0.027384,-0.061682,0.000000,-4.630002
347,3.470000,347,8.122559,-5.367432,-26.792969,1.562378,-0.675446,-3.615967,-0.025210,-0.058313,0.000000,-4.224929
348,3.480000,348,8.735352,-4.831787,-26.676758,1.526001,-0.680206,-4.187500,-0.025498,-0.057203,0.000000,-4.810393
349,3.490000,349,7.764160,-4.634277,-26.801758,1.544556,-0.683197,-3.733521,-0.025491,-0.057629,0.000000,-4.299092
350,3.500000,350,8.007812,-4.782715,-27.185547,1.571594,-0.797211,-4.170654,-0.029325,-0.057810,0.000000,-4.773838
351,3.509000,351,8.394531,-5.762451,-27.172852,1.549194,-0.741547,-4.254883,-0.027290,-0.057013,0.000000,-4.890734
352,3.520000,352,8.485840,-5.515137,-26.664062,1.588867,-0.737274,-4.204346,-0.027650,-0.059588,0.000000,-4.862499
353,3.529000,353,7.639648,-4.883545,-26.668945,1.665894,-0.759033,-3.985718,-0.028461,-0.062466,0.000000,-4.601926
354,3.540000,354,8.344727,-4.621826,-27.447266,1.613953,-0.763733,-4.288330,-0.027825,-0.058802,0.000000,-4.907620
355,3.549000,355,8.552734,-4.743164,-26.547852,1.593018,-0.684814,-4.052734,-0.025795,-0.060006,0.000000,-4.688298
356,3.560000,356,8.368652,-5.085449,-26.797852,1.647766,-0.715515,-4.019287,-0.026700,-0.061489,0.000000,-4.669649
357,3.569000,357,8.398926,-5.330322,-27.308594,1.654175,-0.668488,-4.170654,-0.024479,-0.060573,0.000000,-4.809887
358,3.580000,358,8.001953,-5.369385,-27.047852,1.562622,-0.727173,-4.557373,-0.026885,-0.057773,0.000000,-5.164020
359,3.589000,359,7.911377,-5.125000,-26.666992,1.625549,-0.704315,-4.489990,-0.026411,-0.060957,0.000000,-5.107605
360,3.600000,360,8.911621,-5.507080,-26.666992,1.588623,-0.725281,-4.305176,-0.027198,-0.059573,0.000000,-4.985845
361,3.609000,361,8.976074,-5.166260,-26.801758,1.603577,-0.674744,-4.136963,-0.025175,-0.059831,0.000000,-4.804073
362,3.620000,362,8.761719,-5.201904,-26.542969,1.604248,-0.800079,-4.187500,-0.030143,-0.060440,0.000000,-4.873855
363,3.629000,363,8.067871,-4.720459,-26.930664,1.662231,-0.746979,-4.338867,-0.027737,-0.061723,0.000000,-4.967769
364,3.640000,364,8.392090,-5.733154,-26.532227,1.663391,-0.764252,-4.136963,-0.028805,-0.062693,0.000000,-4.828232
365,3.649000,365,7.997314,-5.556152,-26.274414,1.612732,-0.726471,-3.784058,-0.027649,-0.061380,0.000000,-4.428559
366,3.660000,366,8.488770,-5.114502,-26.541992,1.555908,-0.807465,-4.136963,-0.030422,-0.058621,0.000000,-4.790174
367,3.669000,367,8.642578,-4.895996,-26.417969,1.527283,-0.730408,-4.136963,-0.027648,-0.057812,0.000000,-4.771975
368,3.680000,368,8.122070,-5.552246,-27.045898,1.520874,-0.772247,-4.187500,-0.028553,-0.056233,0.000000,-4.802763
369,3.690000,369,8.342285,-4.837891,-27.316406,1.549805,-0.692505,-4.507080,-0.025351,-0.056735,0.000000,-5.103028
370,3.700000,370,8.427246,-5.239014,-26.540039,1.605164,-0.713867,-4.220947,-0.026898,-0.060481,0.000000,-4.871552
371,3.710000,371,7.971924,-5.400391,-27.175781,1.586548,-0.752258,-3.918701,-0.027681,-0.058381,0.000000,-4.533599
372,3.720000,372,7.824219,-4.694824,-26.801758,1.546021,-0.777435,-3.935181,-0.029007,-0.057684,0.000000,-4.522692
373,3.730000,373,7.423828,-5.472656,-27.170898,1.588379,-0.743988,-3.683228,-0.027382,-0.058459,0.000000,-4.267067
374,3.740000,374,8.250977,-4.870361,-27.315430,1.596863,-0.719055,-4.153809,-0.026324,-0.058460,0.000000,-4.764369
375,3.750000,375,8.762695,-5.139648,-26.671875,1.533447,-0.728271,-3.935181,-0.027305,-0.057493,0.000000,-4.579312
376,3.759000,376,8.740723,-4.337402,-27.069336,1.629700,-0.727081,-3.767334,-0.026860,-0.060205,0.000000,-4.410069
377,3.770000,377,9.552734,-5.002686,-26.166016,1.575745,-0.704681,-3.968750,-0.026931,-0.060221,0.000000,-4.678753
378,3.779000,378,8.943848,-5.413574,-26.796875,1.563293,-0.628571,-3.767090,-0.023457,-0.058339,0.000000,-4.415847
379,3.790000,379,9.187500,-5.132812,-26.290039,1.556030,-0.715607,-3.683228,-0.027220,-0.059187,0.000000,-4.366722
380,3.799000,380,9.497070,-4.632324,-26.685547,1.613403,-0.706024,-3.481445,-0.026457,-0.060460,0.000000,-4.178195
381,3.810000,381,9.065918,-5.656738,-27.435547,1.546753,-0.674957,-3.834595,-0.024602,-0.056378,0.000000,-4.484875
382,3.819000,382,8.641113,-5.295898,-26.924805,1.629883,-0.684784,-3.952271,-0.025433,-0.060535,0.000000,-4.610049
383,3.830000,383,8.275391,-5.395020,-27.049805,1.563171,-0.767426,-4.120361,-0.028371,-0.057789,0.000000,-4.751646
384,3.839000,384,8.854980,-5.229736,-27.056641,1.559082,-0.702789,-4.422852,-0.025975,-0.057623,0.000000,-5.068942
385,3.850000,385,9.556641,-4.908203,-26.938477,1.574097,-0.657837,-4.523682,-0.024420,-0.058433,0.000000,-5.201963
386,3.859000,386,8.309082,-5.085693,-27.183594,1.625061,-0.741821,-4.069824,-0.027289,-0.059781,0.000000,-4.705334
387,3.870000,387,9.253906,-5.158936,-27.701172,1.673401,-0.716400,-4.120361,-0.025862,-0.060409,0.000000,-4.812800
388,3.879000,388,8.007324,-4.506592,-26.547852,1.494873,-0.723328,-4.103271,-0.027246,-0.056309,0.000000,-4.676940
389,3.890000,389,7.851318,-5.033936,-26.667969,1.577209,-0.825348,-4.136963,-0.030949,-0.059142,0.000000,-4.757105
390,3.899000,390,8.580078,-5.174316,-26.669922,1.534302,-0.733521,-4.322021,-0.027504,-0.057529,0.000000,-4.957940
391,3.910000,391,8.459961,-4.899414,-26.416992,1.619812,-0.759491,-4.002441,-0.028750,-0.061317,0.000000,-4.662040
392,3.919000,392,8.552734,-5.172852,-27.439453,1.581238,-0.783600,-3.750488,-0.028557,-0.057626,0.000000,-4.391075
393,3.930000,393,9.100586,-5.070312,-27.317383,1.647827,-0.600128,-3.683228,-0.021969,-0.060322,0.000000,-4.343577
394,3.940000,394,9.132324,-4.731445,-26.809570,1.454224,-0.692932,-3.750366,-0.025846,-0.054243,0.000000,-4.368019
395,3.950000,395,9.434082,-4.880127,-26.680664,1.619446,-0.708588,-4.052734,-0.026558,-0.060697,0.000000,-4.754965
396,3.960000,396,9.011719,-4.610107,-26.939453,1.613159,-0.767944,-3.699951,-0.028506,-0.059881,0.000000,-4.370998
397,3.970000,397,8.888672,-4.859131,-27.061523,1.550049,-0.724579,-3.834595,-0.026775,-0.057279,0.000000,-4.473831
398,3.980000,398,8.527832,-4.341309,-27.068359,1.583618,-0.709137,-3.834595,-0.026198,-0.058504,0.000000,-4.447244
399,3.990000,399,8.558594,-4.279297,-26.941406,1.558960,-0.636078,-3.935425,-0.023610,-0.057865,0.000000,-4.531699
400,4.000000,400,9.099121,-4.794922,-26.294922,1.501587,-0.693115,-3.767090,-0.026359,-0.057106,0.000000,-4.413091
401,4.009000,401,8.190430,-4.288086,-26.167969,1.466187,-0.716797,-4.103271,-0.027392,-0.056030,0.000000,-4.679639
402,4.019000,402,8.467285,-4.188721,-26.813477,1.579773,-0.757751,-3.464600,-0.028260,-0.058917,0.000000,-4.081841
403,4.030000,403,9.074219,-4.301025,-26.687500,1.513000,-0.716858,-3.531860,-0.026861,-0.056693,0.000000,-4.161838
404,4.040000,404,8.554199,-4.404785,-26.168945,1.607483,-0.706909,-3.481445,-0.027013,-0.061427,0.000000,-4.125893
405,4.049000,405,8.100586,-4.319580,-26.680664,1.513611,-0.744263,-3.649414,-0.027895,-0.056731,0.000000,-4.229461
406,4.059000,406,9.074707,-4.331543,-26.815430,1.536926,-0.717194,-3.767090,-0.026746,-0.057315,0.000000,-4.403056
407,4.070000,407,8.553223,-5.203613,-27.568359,1.651367,-0.664246,-4.187500,-0.024094,-0.059901,0.000000,-4.825223
408,4.080000,408,9.128906,-5.224365,-27.058594,1.466553,-0.766785,-4.002441,-0.028338,-0.054199,0.000000,-4.645268
409,4.089000,409,9.651367,-4.382568,-26.690430,1.514832,-0.724854,-4.103271,-0.027158,-0.056756,0.000000,-4.770061
410,4.099000,410,9.893066,-4.501953,-26.433594,1.563721,-0.646179,-4.086670,-0.024445,-0.059157,0.000000,-4.781962
411,4.110000,411,9.476562,-3.798218,-27.339844,1.431885,-0.729065,-4.036377,-0.026667,-0.052374,0.000000,-4.633984
412,4.120000,412,8.979004,-4.980469,-27.189453,1.622437,-0.650879,-4.238037,-0.023939,-0.059672,0.000000,-4.893054
413,4.129000,413,7.980469,-4.290283,-26.937500,1.605469,-0.724121,-3.985718,-0.026882,-0.059600,0.000000,-4.576681
414,4.139000,414,8.098145,-4.627930,-26.675781,1.567322,-0.697540,-3.817627,-0.026149,-0.058754,0.000000,-4.414444
415,4.150000,415,8.371094,-4.869141,-26.930664,1.527161,-0.691071,-4.187500,-0.025661,-0.056707,0.000000,-4.787148
416,4.160000,416,8.253418,-4.684814,-27.574219,1.546326,-0.718872,-4.086670,-0.026070,-0.056079,0.000000,-4.671646
417,4.169000,417,8.312500,-4.531006,-26.806641,1.495667,-0.667511,-3.767090,-0.024901,-0.055795,0.000000,-4.343709
418,4.179000,418,8.855957,-4.922119,-26.676758,1.574341,-0.677155,-3.901733,-0.025384,-0.059015,0.000000,-4.549313
419,4.190000,419,7.733887,-4.726807,-27.056641,1.593201,-0.732666,-4.036377,-0.027079,-0.058884,0.000000,-4.619775
420,4.200000,420,8.429199,-4.992432,-26.543945,1.599121,-0.713013,-4.254639,-0.026862,-0.060244,0.000000,-4.896554
421,4.209000,421,8.309570,-4.686279,-26.418945,1.568481,-0.715210,-4.187500,-0.027072,-0.059370,0.000000,-4.807702
422,4.219000,422,7.826660,-4.416992,-26.805664,1.585388,-0.704651,-4.036133,-0.026287,-0.059144,0.000000,-4.615142
423,4.230000,423,8.291992,-3.297852,-26.698242,1.534790,-0.687866,-3.867920,-0.025764,-0.057487,0.000000,-4.429565
424,4.240000,424,8.405273,-4.405762,-26.938477,1.562073,-0.712524,-4.086670,-0.026450,-0.057987,0.000000,-4.690597
425,4.250000,425,8.279785,-4.686523,-26.546875,1.545471,-0.668427,-3.800903,-0.025179,-0.058217,0.000000,-4.400928
426,4.259000,426,7.575928,-5.285645,-26.789062,1.560425,-0.762299,-4.322021,-0.028456,-0.058249,0.000000,-4.913715
427,4.269000,427,7.458740,-4.640381,-26.542969,1.498230,-0.787079,-4.052734,-0.029653,-0.056445,0.000000,-4.611348
428,4.280000,428,8.290527,-3.697876,-27.205078,1.544983,-0.666138,-4.557373,-0.024486,-0.056790,0.000000,-5.118739
429,4.290000,429,8.346191,-4.221436,-27.068359,1.534546,-0.713867,-4.456543,-0.026373,-0.056692,0.000000,-5.041032
430,4.299000,430,8.832520,-4.335205,-27.199219,1.606628,-0.652924,-4.153809,-0.024005,-0.059069,0.000000,-4.779604
431,4.309000,431,7.918457,-4.353516,-26.806641,1.630066,-0.749817,-3.683228,-0.027971,-0.060808,0.000000,-4.286509
432,4.320000,432,8.073242,-4.226318,-27.195312,1.557922,-0.721802,-3.717041,-0.026541,-0.057286,0.000000,-4.291700
433,4.330000,433,7.786133,-5.620850,-26.786133,1.614746,-0.781403,-3.683228,-0.029172,-0.060283,0.000000,-4.316569
434,4.339000,434,8.372070,-4.469238,-26.423828,1.609375,-0.736725,-3.750366,-0.027881,-0.060906,0.000000,-4.384884
435,4.349000,435,8.338867,-4.932129,-26.671875,1.574646,-0.667755,-3.750366,-0.025036,-0.059038,0.000000,-4.366154
436,4.360000,436,8.978516,-4.735107,-26.423828,1.523376,-0.648682,-4.254639,-0.024549,-0.057652,0.000000,-4.888507
437,4.370000,437,8.251953,-4.470459,-26.807617,1.586609,-0.740814,-3.733521,-0.027634,-0.059185,0.000000,-4.345451
438,4.379000,438,8.395020,-5.240479,-26.154297,1.489380,-0.738007,-4.086670,-0.028217,-0.056946,0.000000,-4.712605
439,4.389000,439,8.369629,-4.961914,-26.799805,1.506165,-0.762909,-3.952026,-0.028467,-0.056201,0.000000,-4.563655
440,4.400000,440,8.461914,-4.683105,-26.549805,1.637756,-0.758942,-3.733521,-0.028586,-0.061686,0.000000,-4.389373
441,4.410000,441,8.741699,-4.275635,-27.070312,1.582031,-0.702881,-3.935425,-0.025965,-0.058442,0.000000,-4.557320
442,4.419000,442,9.187012,-5.040771,-26.034180,1.599731,-0.666992,-3.767090,-0.025620,-0.061447,0.000000,-4.460752
443,4.429000,443,8.670898,-5.356934,-26.923828,1.538940,-0.755920,-4.069824,-0.028076,-0.057159,0.000000,-4.715847
444,4.440000,444,8.604492,-5.914062,-26.659180,1.552368,-0.687317,-3.784058,-0.025782,-0.058230,0.000000,-4.437572
445,4.450000,445,8.366211,-5.516357,-27.176758,1.589355,-0.717621,-3.901733,-0.026406,-0.058482,0.000000,-4.536671
446,4.459000,446,8.853516,-4.985107,-26.162109,1.667725,-0.676422,-3.447754,-0.025855,-0.063746,0.000000,-4.141018
447,4.469000,447,8.276367,-5.179688,-26.795898,1.557739,-0.718384,-3.716797,-0.026809,-0.058133,0.000000,-4.336796
448,4.480000,448,8.432129,-4.775635,-26.803711,1.594116,-0.712738,-3.598999,-0.026591,-0.059474,0.000000,-4.227478
449,4.490000,449,7.547363,-5.070312,-26.792969,1.555115,-0.738556,-3.666260,-0.027565,-0.058042,0.000000,-4.244088
450,4.500000,450,9.336426,-5.714844,-26.794922,1.524475,-0.762085,-4.271484,-0.028441,-0.056894,0.000000,-4.965211
451,4.509000,451,8.454590,-5.946289,-27.298828,1.576843,-0.764618,-3.884888,-0.028009,-0.057762,0.000000,-4.539795
452,4.519000,452,9.086426,-6.306396,-26.398438,1.561707,-0.722351,-3.918457,-0.027363,-0.059159,0.000000,-4.628566
453,4.530000,453,8.964355,-6.339600,-26.397461,1.654968,-0.701965,-3.867920,-0.026592,-0.062694,0.000000,-4.598516
454,4.540000,454,8.722656,-6.189941,-26.398438,1.605103,-0.684387,-3.901733,-0.025925,-0.060803,0.000000,-4.592573
455,4.549000,455,7.353516,-6.645752,-27.280273,1.640320,-0.749908,-4.019531,-0.027489,-0.060128,0.000000,-4.644372
456,4.559000,456,8.364258,-5.026367,-25.644531,1.576111,-0.785095,-3.716797,-0.030615,-0.061460,0.000000,-4.384743
457,4.570000,457,8.668945,-5.511475,-26.793945,1.565796,-0.756226,-4.086670,-0.028224,-0.058438,0.000000,-4.748824
458,4.580000,458,7.595947,-6.488281,-26.770508,1.728394,-0.741699,-4.069824,-0.027706,-0.064563,0.000000,-4.740007
459,4.589000,459,8.446289,-6.503662,-26.390625,1.658997,-0.669281,-3.867920,-0.025361,-0.062863,0.000000,-4.563817
460,4.599000,460,8.516602,-5.422363,-26.537109,1.609558,-0.759796,-4.136963,-0.028631,-0.060653,0.000000,-4.808771
461,4.610000,461,7.845947,-5.405273,-26.147461,1.585876,-0.706146,-4.136963,-0.027006,-0.060651,0.000000,-4.758806
462,4.620000,462,8.127930,-4.812012,-26.929688,1.479675,-0.793396,-3.952271,-0.029462,-0.054946,0.000000,-4.540637
463,4.629000,463,7.757568,-5.405518,-26.789062,1.563354,-0.733704,-4.019287,-0.027388,-0.058358,0.000000,-4.620050
464,4.639000,464,7.913086,-5.031982,-26.923828,1.577332,-0.656586,-3.582397,-0.024387,-0.058585,0.000000,-4.168699
465,4.650000,465,7.759521,-5.404297,-27.301758,1.563721,-0.878174,-4.153809,-0.032165,-0.057275,0.000000,-4.772071
466,4.660000,466,8.238281,-6.412842,-27.417969,1.657654,-0.700592,-3.918701,-0.025552,-0.060459,0.000000,-4.580639
467,4.669000,467,8.392578,-5.886719,-26.914062,1.690552,-0.693665,-3.750488,-0.025773,-0.062813,0.000000,-4.429371
468,4.679000,468,8.179688,-6.074707,-27.293945,1.626221,-0.748779,-3.935425,-0.027434,-0.059582,0.000000,-4.589437
469,4.690000,469,7.508057,-5.935547,-26.394531,1.599121,-0.741699,-3.884888,-0.028100,-0.060585,0.000000,-4.506557
470,4.700000,470,7.541992,-5.748535,-26.910156,1.548767,-0.717163,-3.868164,-0.026650,-0.057553,0.000000,-4.455431
471,4.710000,471,7.606689,-5.315430,-26.917969,1.538208,-0.809631,-4.153809,-0.030078,-0.057144,0.000000,-4.748363
472,4.719000,472,7.784668,-5.529297,-26.273438,1.612122,-0.732391,-3.733521,-0.027876,-0.061359,0.000000,-4.365316
473,4.730000,473,7.301514,-5.198975,-26.404297,1.581116,-0.769135,-3.918457,-0.029129,-0.059881,0.000000,-4.507121
474,4.740000,474,8.149902,-5.491699,-26.276367,1.611145,-0.721954,-3.834351,-0.027475,-0.061315,0.000000,-4.484951
475,4.750000,475,7.999512,-5.370850,-26.406250,1.585205,-0.749969,-3.716797,-0.028401,-0.060031,0.000000,-4.349557
476,4.759000,476,7.876465,-5.773193,-26.912109,1.595520,-0.803558,-3.649658,-0.029859,-0.059286,0.000000,-4.289004
477,4.769000,477,8.427734,-5.177246,-26.541016,1.603699,-0.761505,-4.120117,-0.028692,-0.060423,0.000000,-4.777894
478,4.780000,478,8.151367,-5.368164,-26.407227,1.538879,-0.697876,-4.305176,-0.026427,-0.058275,0.000000,-4.922063
479,4.790000,479,8.915527,-5.198242,-26.928711,1.535156,-0.676758,-3.952271,-0.025131,-0.057008,0.000000,-4.591168
480,4.799000,480,7.975586,-4.845703,-26.928711,1.526672,-0.726044,-4.002441,-0.026962,-0.056693,0.000000,-4.585251
481,4.809000,481,8.270996,-5.612549,-26.404297,1.591064,-0.671356,-3.867920,-0.025426,-0.060258,0.000000,-4.509017
482,4.820000,482,8.092285,-5.368408,-26.791992,1.562378,-0.724152,-4.019287,-0.027029,-0.058315,0.000000,-4.636291
483,4.830000,483,8.185547,-5.027588,-26.541992,1.553772,-0.720001,-3.968750,-0.027127,-0.058540,0.000000,-4.584316
484,4.839000,484,8.610840,-5.419189,-27.180664,1.679382,-0.782257,-4.086670,-0.028780,-0.061786,0.000000,-4.774662
485,4.849000,485,8.706543,-5.076660,-27.699219,1.625244,-0.683685,-4.204346,-0.024682,-0.058675,0.000000,-4.840505
486,4.860000,486,8.733887,-4.986084,-26.673828,1.622131,-0.680756,-3.615967,-0.025521,-0.060814,0.000000,-4.274358
487,4.870000,487,8.283203,-4.377441,-26.808594,1.584351,-0.643860,-4.153809,-0.024017,-0.059099,0.000000,-4.748467
488,4.879000,488,8.498535,-4.126709,-26.814453,1.578186,-0.756653,-3.968750,-0.028218,-0.058856,0.000000,-4.585386
489,4.889000,489,8.955078,-3.933350,-26.564453,1.526917,-0.694855,-4.120117,-0.026157,-0.057480,0.000000,-4.737738
490,4.900000,490,8.525391,-4.557617,-26.935547,1.565735,-0.757477,-4.422852,-0.028122,-0.058129,0.000000,-5.046592
491,4.910000,491,8.702148,-5.018066,-26.416992,1.576477,-0.681305,-3.918457,-0.025790,-0.059677,0.000000,-4.567190
492,4.919000,492,8.434570,-4.344482,-26.553711,1.537170,-0.639038,-3.952026,-0.024066,-0.057889,0.000000,-4.544850
493,4.929000,493,8.253418,-4.254883,-26.682617,1.604309,-0.739807,-4.002441,-0.027726,-0.060126,0.000000,-4.616655
494,4.940000,494,8.858398,-4.920898,-27.189453,1.620972,-0.654083,-4.456543,-0.024057,-0.059618,0.000000,-5.103040
495,4.950000,495,9.500488,-4.384766,-26.945312,1.607544,-0.681671,-3.817871,-0.025298,-0.059660,0.000000,-4.495593
496,4.960000,496,9.191406,-4.669678,-26.297852,1.544739,-0.714050,-3.632690,-0.027152,-0.058740,0.000000,-4.299388
497,4.969000,497,8.951172,-4.396240,-26.556641,1.630676,-0.648621,-3.699951,-0.024424,-0.061404,0.000000,-4.356960
498,4.980000,498,9.161133,-4.762451,-26.552734,1.593384,-0.739594,-3.632690,-0.027854,-0.060008,0.000000,-4.315086
499,4.990000,499,8.558594,-4.309814,-27.068359,1.629028,-0.708191,-4.221191,-0.026163,-0.060182,0.000000,-4.849022
500,5.000000,500,8.335449,-5.240967,-26.410156,1.581970,-0.740173,-3.817627,-0.028026,-0.059900,0.000000,-4.463805
501,5.009000,501,8.917969,-4.920166,-27.061523,1.551514,-0.747864,-4.036377,-0.027636,-0.057333,0.000000,-4.683641
502,5.019000,502,8.726562,-5.880615,-26.788086,1.620972,-0.707916,-4.052734,-0.026427,-0.060511,0.000000,-4.736191
503,5.030000,503,8.891113,-4.550293,-27.067383,1.634888,-0.603882,-4.238037,-0.022310,-0.060401,0.000000,-4.876585
504,5.040000,504,8.586426,-4.556641,-26.937500,1.565735,-0.683990,-4.540527,-0.025392,-0.058125,0.000000,-5.155312
505,5.049000,505,8.187988,-4.934326,-26.928711,1.575012,-0.768219,-4.170654,-0.028528,-0.058488,0.000000,-4.790321
506,5.059000,506,9.127441,-5.102539,-26.417969,1.624634,-0.717468,-4.120117,-0.027158,-0.061497,0.000000,-4.820007
507,5.070000,507,8.490723,-5.051758,-26.928711,1.531616,-0.688232,-4.305176,-0.025558,-0.056877,0.000000,-4.917211
508,5.080000,508,8.818359,-5.632812,-26.408203,1.637634,-0.656036,-4.120117,-0.024842,-0.062012,0.000000,-4.806895
509,5.089000,509,8.375000,-4.436768,-27.065430,1.585999,-0.737640,-4.086670,-0.027254,-0.058599,0.000000,-4.698354
510,5.099000,510,8.762695,-5.109375,-26.543945,1.601929,-0.823669,-4.036133,-0.031030,-0.060350,0.000000,-4.723508
511,5.110000,511,9.127930,-5.194336,-26.802734,1.604187,-0.742340,-3.699951,-0.027696,-0.059852,0.000000,-4.390137
512,5.120000,512,9.044922,-4.454834,-27.199219,1.517151,-0.743042,-4.069824,-0.027319,-0.055779,0.000000,-4.696042
513,5.129000,513,8.066895,-4.751709,-26.801758,1.593506,-0.770752,-3.867920,-0.028758,-0.059455,0.000000,-4.484187
514,5.139000,514,8.796387,-4.492676,-26.041016,1.586426,-0.652283,-3.784058,-0.025048,-0.060920,0.000000,-4.432470
515,5.150000,515,8.865234,-3.934570,-26.821289,1.481018,-0.745728,-4.002441,-0.027804,-0.055218,0.000000,-4.601357
516,5.160000,516,9.254883,-4.544434,-26.685547,1.518860,-0.712585,-4.069824,-0.026703,-0.056917,0.000000,-4.717934
517,5.169000,517,8.193848,-4.101807,-26.685547,1.600647,-0.740997,-3.649414,-0.027768,-0.059982,0.000000,-4.254794
518,5.179000,518,9.131836,-4.578125,-26.426758,1.519470,-0.619934,-3.515015,-0.023459,-0.057497,0.000000,-4.147468
519,5.190000,519,8.829590,-4.337158,-26.428711,1.513611,-0.723389,-3.750366,-0.027371,-0.057271,0.000000,-4.374763
520,5.200000,520,7.650146,-3.557617,-26.433594,1.540955,-0.706238,-3.834351,-0.026717,-0.058295,0.000000,-4.375369
521,5.209000,521,8.470703,-3.480713,-26.183594,1.538818,-0.754242,-4.002441,-0.028806,-0.058770,0.000000,-4.600533
522,5.219000,522,8.685059,-3.475830,-26.570312,1.515869,-0.653229,-4.254639,-0.024585,-0.057051,0.000000,-4.835585
523,5.230000,523,12.721191,-8.351074,-19.333008,2.182495,0.056360,-4.287598,0.002915,-0.112890,0.000000,-5.699342
524,5.240000,524,36.462891,-28.101562,64.324219,9.798828,7.646240,-4.774902,-0.118870,0.152335,0.000000,-2.560771
525,5.250000,525,60.201172,-29.390625,179.882812,19.453125,16.633789,-8.341309,-0.092470,0.108143,0.000000,-4.548709
526,5.259000,526,68.632812,11.733887,336.328125,28.676758,25.402344,-11.413574,-0.075528,0.085264,0.000000,-4.675408
527,5.269000,527,108.468750,30.353516,498.875000,40.566406,36.314453,-15.979492,-0.072793,0.081316,0.000000,-4.949759
528,5.280000,528,118.597656,11.202637,472.718750,38.058594,33.580078,-14.891602,-0.071036,0.080510,0.000000,-4.547511
529,5.290000,529,124.601562,13.911621,475.109375,36.914062,32.654297,-14.802734,-0.068730,0.077696,0.000000,-4.165554
530,5.299000,530,131.796875,14.378906,494.156250,37.595703,33.103516,-15.461914,-0.066990,0.076081,0.000000,-4.471486
531,5.309000,531,131.304688,12.001465,497.234375,37.093750,32.800781,-16.068359,-0.065966,0.074600,0.000000,-5.481318
532,5.320000,532,136.789062,12.845703,513.312500,37.240234,33.093750,-16.503906,-0.064471,0.072549,0.000000,-5.751842
533,5.330000,533,144.695312,14.586426,529.156250,37.552734,33.681641,-16.419922,-0.063652,0.070967,0.000000,-5.222852
534,5.339000,534,141.664062,16.755859,537.906250,37.509766,33.982422,-16.352539,-0.063175,0.069733,0.000000,-5.415335
535,5.349000,535,135.921875,16.922852,547.562500,37.251953,34.716797,-15.979492,-0.063402,0.068032,0.000000,-5.659460
536,5.360000,536,134.804688,15.880371,557.750000,36.984375,35.169922,-15.517578,-0.063057,0.066310,0.000000,-5.577321
537,5.370000,537,131.125000,13.703613,564.906250,36.513672,35.513672,-15.469238,-0.062866,0.064637,0.000000,-6.132254
538,5.379000,538,126.093750,13.261719,569.218750,36.328125,35.919922,-14.919922,-0.063104,0.063821,0.000000,-6.035624
539,5.389000,539,121.761719,14.184570,573.500000,36.291016,36.300781,-14.867188,-0.063297,0.063280,0.000000,-6.264280
540,5.400000,540,118.546875,14.457520,577.187500,36.390625,36.443359,-14.812500,-0.063140,0.063048,0.000000,-6.425494
541,5.410000,541,117.500000,13.467285,580.781250,36.546875,36.728516,-15.252930,-0.063240,0.062927,0.000000,-7.007328
542,5.419000,542,118.078125,13.354004,586.500000,36.976562,37.058594,-15.056152,-0.063186,0.063046,0.000000,-6.767996
543,5.429000,543,116.929688,14.259277,591.875000,37.589844,37.443359,-15.717773,-0.063262,0.063510,0.000000,-7.389521
544,5.440000,544,116.750000,15.846191,597.937500,38.185547,37.687500,-15.561035,-0.063029,0.063862,0.000000,-7.106361
545,5.450000,545,117.144531,17.614258,602.375000,38.671875,37.781250,-16.675781,-0.062720,0.064199,0.000000,-8.050446
546,5.459000,546,117.417969,20.189453,605.843750,39.042969,37.773438,-16.599609,-0.062348,0.064444,0.000000,-7.773949
547,5.469000,547,119.152344,20.776367,607.343750,39.214844,37.724609,-17.098633,-0.062114,0.064568,0.000000,-8.114724
548,5.480000,548,120.039062,20.628906,608.250000,39.380859,37.554688,-17.576172,-0.061742,0.064745,0.000000,-8.530626
549,5.490000,549,120.289062,20.438477,610.656250,39.404297,37.609375,-17.936523,-0.061588,0.064528,0.000000,-8.915762
550,5.500000,550,119.679688,20.750000,615.000000,39.710938,37.816406,-17.976562,-0.061490,0.064571,0.000000,-8.972851
551,5.509000,551,118.140625,21.845703,616.906250,39.794922,37.972656,-18.246094,-0.061553,0.064507,0.000000,-9.280491
552,5.519000,552,114.343750,21.824219,615.250000,39.769531,38.001953,-17.271484,-0.061767,0.064640,0.000000,-8.532337
553,5.530000,553,111.402344,21.296875,612.281250,39.533203,37.761719,-17.716797,-0.061674,0.064567,0.000000,-9.210415
554,5.540000,554,108.800781,22.347656,607.156250,39.236328,37.507812,-17.273438,-0.061776,0.064623,0.000000,-8.861839
555,5.549000,555,106.824219,21.409180,599.656250,38.556641,36.998047,-17.651367,-0.061699,0.064298,0.000000,-9.461874
556,5.559000,556,104.523438,19.560547,594.531250,37.824219,36.554688,-16.989258,-0.061485,0.063620,0.000000,-9.136774
557,5.570000,557,104.824219,17.294922,591.187500,36.939453,36.482422,-17.232422,-0.061710,0.062483,0.000000,-9.615364
558,5.580000,558,103.917969,15.025391,591.968750,36.488281,36.263672,-17.133789,-0.061259,0.061639,0.000000,-9.807957
559,5.589000,559,104.093750,14.767578,595.531250,35.937500,36.388672,-16.810547,-0.061103,0.060345,0.000000,-9.626638
560,5.599000,560,103.187500,12.686035,599.125000,35.613281,36.480469,-16.279297,-0.060890,0.059442,0.000000,-9.373161
561,5.610000,561,102.378906,11.257324,604.000000,35.085938,36.509766,-15.951660,-0.060447,0.058089,0.000000,-9.324074
562,5.620000,562,101.238281,11.151367,609.468750,34.597656,36.652344,-16.186523,-0.060138,0.056767,0.000000,-9.768916
563,5.629000,563,101.410156,11.010254,616.750000,34.062500,36.591797,-15.945801,-0.059330,0.055229,0.000000,-9.691778
564,5.639000,564,102.671875,9.769531,621.437500,33.330078,36.363281,-16.006836,-0.058515,0.053634,0.000000,-9.928488
565,5.650000,565,104.093750,7.498047,624.187500,32.347656,35.964844,-16.094727,-0.057619,0.051824,0.000000,-10.268184
566,5.660000,566,104.707031,6.718506,625.187500,31.448242,35.621094,-15.623535,-0.056977,0.050302,0.000000,-9.973754
567,5.669000,567,104.558594,6.898438,625.687500,30.617188,35.402344,-15.256348,-0.056582,0.048934,0.000000,-9.749588
568,5.679000,568,102.417969,6.307373,625.062500,30.012695,35.011719,-14.741699,-0.056013,0.048016,0.000000,-9.470752
569,5.690000,569,101.308594,7.586670,624.500000,29.389648,34.697266,-14.579102,-0.055560,0.047061,0.000000,-9.389893
570,5.700000,570,100.160156,6.347412,620.906250,28.736328,34.185547,-14.307617,-0.055058,0.046281,0.000000,-9.322605
571,5.710000,571,98.218750,5.674072,614.531250,27.842773,33.457031,-13.382324,-0.054443,0.045307,0.000000,-8.623381
572,5.719000,572,96.546875,5.502686,608.875000,26.709961,32.644531,-13.272949,-0.053615,0.043868,0.000000,-8.742634
573,5.730000,573,94.511719,4.873047,610.125000,25.897461,32.349609,-12.644043,-0.053021,0.042446,0.000000,-8.374008
574,5.740000,574,95.468750,4.713867,613.937500,25.255859,32.162109,-12.642578,-0.052387,0.041138,0.000000,-8.468288
575,5.750000,575,98.269531,4.018555,615.937500,24.263672,31.728516,-13.008301,-0.051513,0.039393,0.000000,-8.930155
576,5.759000,576,99.007812,1.807800,618.187500,23.397461,31.500977,-12.557129,-0.050957,0.037848,0.000000,-8.717712
577,5.769000,577,99.281250,-0.897308,620.062500,22.730469,31.227539,-12.102051,-0.050362,0.036658,0.000000,-8.507753
578,5.780000,578,100.910156,-0.634338,619.125000,22.151367,30.980469,-11.585449,-0.050039,0.035779,0.000000,-8.006777
579,5.790000,579,100.750000,-1.262512,616.937500,21.320312,30.495117,-11.884766,-0.049430,0.034558,0.000000,-8.465422
580,5.799000,580,100.796875,-2.462646,611.687500,20.599609,29.959961,-11.580078,-0.048979,0.033677,0.000000,-8.306192
581,5.809000,581,100.289062,-2.976807,604.437500,19.680664,29.340820,-11.461426,-0.048542,0.032560,0.000000,-8.340485
582,5.820000,582,100.195312,-3.092896,595.562500,18.569336,28.562500,-11.269043,-0.047959,0.031179,0.000000,-8.293336
583,5.830000,583,99.093750,-5.524902,585.250000,17.422852,27.511719,-10.797363,-0.047008,0.029770,0.000000,-8.107066
584,5.839000,584,97.457031,-6.652588,570.812500,15.883789,26.446289,-10.651855,-0.046331,0.027827,0.000000,-8.248176
585,5.849000,585,95.300781,-8.770020,553.437500,14.210938,25.123047,-10.300781,-0.045395,0.025678,0.000000,-8.251799
586,5.860000,586,92.250000,-12.592285,532.031250,12.396973,23.407227,-10.050293,-0.043996,0.023301,0.000000,-8.454765
587,5.870000,587,88.371094,-13.447754,506.437500,10.354492,21.554688,-10.171875,-0.042561,0.020446,0.000000,-8.937417
588,5.879000,588,83.308594,-14.945312,477.765625,8.376465,19.592773,-10.430176,-0.041009,0.017533,0.000000,-9.582457
589,5.889000,589,79.457031,-15.626953,445.765625,6.429443,17.496094,-10.944824,-0.039250,0.014423,0.000000,-10.412137
590,5.900000,590,75.644531,-15.504395,409.796875,4.326660,15.449707,-10.616699,-0.037701,0.010558,0.000000,-10.402570
591,5.910000,591,70.210938,-16.555664,369.859375,2.326416,13.091797,-11.750977,-0.035397,0.006290,0.000000,-11.895366
592,5.919000,592,63.576172,-18.283203,327.968750,0.497223,10.586914,-12.407715,-0.032280,0.001516,0.000000,-12.901515
593,5.929000,593,58.693359,-18.389648,285.484375,-1.227722,8.156250,-13.411133,-0.028570,-0.004300,0.000000,-14.188932
594,5.940000,594,52.001953,-18.359375,243.890625,-2.550171,5.773926,-13.449707,-0.023674,-0.010456,0.000000,-14.428095
595,5.950000,595,46.386719,-17.582031,205.109375,-3.362549,3.999268,-12.220215,-0.019498,-0.016394,0.000000,-13.323494
596,5.960000,596,40.593750,-15.533203,169.023438,-3.586182,2.520386,-11.757324,-0.014911,-0.021217,0.000000,-12.850227
597,5.969000,597,36.417969,-13.364258,135.398438,-3.363892,1.378723,-11.703125,-0.010183,-0.024844,0.000000,-12.743992
598,5.980000,598,27.707031,-11.259277,101.972656,-2.623169,0.581848,-11.480957,-0.005706,-0.025724,0.000000,-12.257943
599,5.990000,599,13.893066,-8.164062,66.933594,-1.931091,0.038742,-9.305176,-0.000579,-0.028851,0.000000,-9.710728
600,6.000000,600,14.125488,-6.905029,43.810547,-0.837433,-0.089523,-7.306885,0.002043,-0.019115,0.000000,-7.562781
601,6.009000,601,13.908203,-6.335449,23.325195,-0.003338,-0.401398,-3.081299,0.017209,-0.000143,0.000000,-2.974264
602,6.019000,602,13.384277,-5.665527,6.934082,0.620789,-0.519043,-4.031250,0.074854,0.089527,0.000000,-2.408907
603,6.030000,603,12.124023,-4.905762,-4.704346,1.126099,-0.725128,-4.287109,-0.154140,-0.239374,0.000000,-7.945461
604,6.040000,604,11.090332,-4.107910,-13.357910,1.265320,-0.730713,-4.102539,-0.054703,-0.094724,0.000000,-5.377777
605,6.049000,605,9.535645,-3.907227,-19.639648,1.520264,-0.689606,-3.581665,-0.035113,-0.077408,0.000000,-4.456993
606,6.059000,606,9.237305,-5.106934,-23.595703,1.576111,-0.613403,-3.430908,-0.025996,-0.066797,0.000000,-4.180690
607,6.070000,607,7.484375,-4.704102,-25.515625,1.545105,-0.736786,-3.985718,-0.028876,-0.060555,0.000000,-4.574771
608,6.080000,608,7.732910,-4.113281,-25.526367,1.576782,-0.727905,-3.649414,-0.028516,-0.061771,0.000000,-4.244375
609,6.089000,609,7.604492,-4.856201,-25.384766,1.618042,-0.685822,-3.699951,-0.027017,-0.063741,0.000000,-4.315867
610,6.099000,610,7.755859,-5.099365,-25.767578,1.601135,-0.730896,-4.002441,-0.028365,-0.062138,0.000000,-4.629015
611,6.110000,611,7.331055,-5.291016,-26.402344,1.583313,-0.672852,-3.968750,-0.025485,-0.059969,0.000000,-4.543222
612,6.120000,612,7.482910,-5.073486,-25.894531,1.577576,-0.666962,-3.716797,-0.025757,-0.060923,0.000000,-4.303356
613,6.129000,613,7.600098,-5.779785,-26.269531,1.664551,-0.642670,-3.884888,-0.024464,-0.063364,0.000000,-4.507862
614,6.139000,614,7.323242,-4.804443,-23.458984,1.545776,-0.690033,-3.800659,-0.029414,-0.065893,0.000000,-4.424528
615,6.150000,615,7.045410,-2.004761,-9.000000,1.210754,-0.781891,-3.984497,-0.086877,-0.134528,0.000000,-5.106471
616,6.160000,616,7.791992,-3.853882,3.236450,0.899719,-0.706421,-3.822632,0.218270,0.277996,0.000000,-0.815304
617,6.169000,617,10.460938,-7.629150,17.875977,0.469650,-0.751617,-2.742310,0.042046,0.026273,0.000000,-2.146696
618,6.179000,618,17.327148,-11.860840,41.509766,0.458908,-0.455719,-2.941406,0.010979,0.011055,0.000000,-2.619632
619,6.190000,619,22.676758,-15.517090,76.976562,1.428467,-0.035831,-2.624390,0.000465,0.018557,0.000000,-2.196350
620,6.200000,620,23.798828,-11.392578,128.304688,4.130615,1.443359,-2.844604,-0.011249,0.032194,0.000000,-2.206590
621,6.209000,621,23.210938,-0.354462,176.312500,7.342529,2.934448,-3.174438,-0.016643,0.041645,0.000000,-2.213719
622,6.219000,622,26.411133,4.791504,202.492188,8.978027,3.929443,-3.359741,-0.019405,0.044338,0.000000,-2.095753
623,6.230000,623,29.175781,0.254791,213.367188,9.400391,4.144531,-3.392090,-0.019424,0.044057,0.000000,-2.101733
624,6.240000,624,32.517578,-4.047607,212.773438,9.026855,3.951172,-3.445068,-0.018570,0.042425,0.000000,-2.140682
625,6.250000,625,35.306641,-6.839844,209.312500,8.256348,3.457642,-3.262451,-0.016519,0.039445,0.000000,-1.982766
626,6.259000,626,39.750000,-6.169189,209.804688,7.834229,3.141724,-4.050537,-0.014975,0.037341,0.000000,-2.658630
627,6.269000,627,44.011719,-6.229980,213.414062,7.929199,3.086914,-4.250000,-0.014464,0.037154,0.000000,-2.704899
628,6.280000,628,47.849609,-5.670410,219.703125,8.165039,3.098633,-4.637939,-0.014104,0.037164,0.000000,-2.939632
629,6.290000,629,50.568359,-5.840820,227.531250,8.601562,3.106079,-4.463867,-0.013651,0.037804,0.000000,-2.631922
630,6.299000,630,52.189453,-4.405762,236.984375,9.155762,3.235962,-4.674072,-0.013655,0.038634,0.000000,-2.717921
631,6.309000,631,53.054688,-3.728149,246.585938,9.793945,3.488403,-5.226562,-0.014147,0.039718,0.000000,-3.172068
632,6.320000,632,54.582031,-2.589600,257.687500,10.284668,3.616821,-4.566895,-0.014036,0.039911,0.000000,-2.424796
633,6.330000,633,55.832031,-4.152344,268.734375,10.725098,3.849609,-5.001221,-0.014325,0.039910,0.000000,-2.832465
634,6.339000,634,57.525391,-4.132568,278.562500,11.061035,3.953491,-5.117920,-0.014192,0.039708,0.000000,-2.892379
635,6.349000,635,59.638672,-4.073975,288.546875,11.418945,4.020508,-5.129395,-0.013934,0.039574,0.000000,-2.826020
636,6.360000,636,62.007812,-3.943237,299.390625,11.705078,4.119141,-5.454834,-0.013758,0.039096,0.000000,-3.084808
637,6.370000,637,64.312500,-4.150635,308.218750,12.230469,4.140869,-5.361572,-0.013435,0.039681,0.000000,-2.865343
638,6.379000,638,66.296875,-3.914429,315.609375,12.513184,4.081787,-5.375000,-0.012933,0.039648,0.000000,-2.797107
639,6.389000,639,67.289062,-3.571655,321.609375,12.844238,4.092041,-5.405762,-0.012724,0.039937,0.000000,-2.763857
640,6.400000,640,68.972656,-4.252686,328.390625,13.016113,4.213135,-5.671143,-0.012830,0.039636,0.000000,-2.991898
641,6.410000,641,69.734375,-5.164307,334.265625,13.079590,4.189209,-6.051025,-0.012533,0.039129,0.000000,-3.387088
642,6.419000,642,71.167969,-5.279053,339.484375,13.258789,4.143555,-5.903809,-0.012205,0.039056,0.000000,-3.188729
643,6.429000,643,70.593750,-4.952148,343.578125,13.430664,4.206787,-5.818115,-0.012244,0.039091,0.000000,-3.119200
644,6.440000,644,70.097656,-4.717529,348.421875,13.785645,4.368408,-5.360107,-0.012538,0.039566,0.000000,-2.645774
645,6.450000,645,70.390625,-4.731689,353.265625,14.102539,4.429688,-5.550049,-0.012539,0.039920,0.000000,-2.799352
646,6.459000,646,71.082031,-4.535156,357.609375,14.505859,4.501221,-5.719727,-0.012587,0.040563,0.000000,-2.893480
647,6.469000,647,71.414062,-5.356445,358.781250,14.685059,4.484619,-6.053955,-0.012500,0.040930,0.000000,-3.197902
648,6.480000,648,71.863281,-5.062256,358.765625,14.860840,4.496826,-6.188965,-0.012534,0.041422,0.000000,-3.275685
649,6.490000,649,71.863281,-4.183105,360.156250,15.045410,4.382324,-6.141602,-0.012168,0.041775,0.000000,-3.190436
650,6.500000,650,73.152344,-3.497314,364.109375,15.323242,4.470215,-6.177246,-0.012277,0.042084,0.000000,-3.141627
651,6.509000,651,73.941406,-3.370483,370.468750,15.819336,4.522461,-5.963135,-0.012207,0.042701,0.000000,-2.846918
652,6.519000,652,74.960938,-1.951050,376.687500,16.077148,4.632080,-6.077393,-0.012297,0.042680,0.000000,-2.902026
653,6.530000,653,74.812500,0.597809,380.718750,16.376953,4.593994,-6.574463,-0.012067,0.043016,0.000000,-3.349124
654,6.540000,654,73.230469,1.390503,383.140625,16.468750,4.535645,-5.822754,-0.011838,0.042984,0.000000,-2.658586
655,6.549000,655,73.675781,1.978455,382.000000,16.480469,4.618896,-5.787354,-0.012091,0.043143,0.000000,-2.584868
656,6.559000,656,71.160156,3.574951,376.343750,16.307617,4.433838,-5.821289,-0.011781,0.043332,0.000000,-2.695680
657,6.570000,657,68.269531,3.990601,369.687500,16.164062,4.234375,-5.414307,-0.011454,0.043724,0.000000,-2.383610
658,6.580000,658,65.679688,4.266357,358.468750,15.570801,4.012207,-5.459961,-0.011193,0.043437,0.000000,-2.559282
659,6.589000,659,61.777344,4.073486,344.171875,14.991699,3.823120,-5.026367,-0.011108,0.043559,0.000000,-2.290174
660,6.599000,660,54.955078,5.683350,324.484375,14.533203,3.670044,-4.919189,-0.011310,0.044789,0.000000,-2.393547
661,6.610000,661,50.078125,7.613770,301.468750,14.091309,3.570068,-4.507568,-0.011842,0.046742,0.000000,-2.076643
662,6.620000,662,44.638672,11.376953,273.812500,13.240723,3.360107,-4.227051,-0.012272,0.048357,0.000000,-1.928850
663,6.629000,663,38.960938,11.410645,241.945312,11.913086,2.958740,-4.750732,-0.012229,0.049239,0.000000,-2.692804
664,6.639000,664,36.726562,10.278809,210.656250,9.907227,2.305298,-4.508057,-0.010943,0.047030,0.000000,-2.668310
665,6.650000,665,33.273438,7.130371,179.218750,7.696045,1.685608,-4.080566,-0.009405,0.042942,0.000000,-2.584669
666,6.660000,666,29.885742,2.281372,148.453125,5.731934,1.087341,-3.694092,-0.007324,0.038611,0.000000,-2.523462
667,6.669000,667,26.478516,-2.580688,123.890625,4.000732,0.674866,-3.059692,-0.005447,0.032292,0.000000,-2.218694
668,6.679000,668,25.880859,-5.679932,105.843750,2.644409,0.384460,-2.606079,-0.003632,0.024984,0.000000,-1.980101
669,6.690000,669,24.672852,-9.917969,94.601562,1.785706,0.107700,-3.112183,-0.001138,0.018876,0.000000,-2.657748
670,6.700000,670,24.557617,-13.038086,90.550781,1.724792,0.280304,-2.905762,-0.003096,0.019048,0.000000,-2.478353
671,6.710000,671,26.286133,-15.050293,95.855469,2.206421,0.613953,-2.629883,-0.006405,0.023018,0.000000,-2.121220
672,6.719000,672,27.497070,-11.136230,107.871094,3.337524,1.153564,-3.024292,-0.010694,0.030940,0.000000,-2.292624
673,6.730000,673,28.817383,-3.656860,125.601562,4.791992,1.728333,-3.092529,-0.013760,0.038152,0.000000,-2.043399
674,6.740000,674,31.071289,2.721802,144.828125,6.632568,2.598022,-3.738647,-0.017939,0.045796,0.000000,-2.266877
675,6.750000,675,33.935547,6.724609,165.257812,8.327148,3.406372,-4.587891,-0.020612,0.050389,0.000000,-2.739307
676,6.759000,676,36.376953,7.960938,189.312500,10.089844,4.271973,-5.294678,-0.022566,0.053297,0.000000,-3.176240
677,6.769000,677,40.568359,9.949219,214.617188,11.187012,4.993896,-5.007080,-0.023269,0.052125,0.000000,-2.660930
678,6.780000,678,42.654297,7.407227,230.062500,11.277344,5.250977,-4.893799,-0.022824,0.049019,0.000000,-2.633881
679,6.790000,679,42.976562,4.573975,233.109375,9.923828,4.843750,-4.678223,-0.020779,0.042572,0.000000,-2.753602
680,6.799000,680,43.185547,0.627869,237.789062,8.579102,4.515625,-3.996094,-0.018990,0.036079,0.000000,-2.426095
681,6.809000,681,46.494141,-0.396683,250.679688,7.886230,4.425049,-4.378662,-0.017652,0.031459,0.000000,-2.922987
682,6.820000,682,49.433594,-2.489380,263.468750,7.150879,4.273926,-4.424561,-0.016222,0.027141,0.000000,-3.123251
683,6.830000,683,53.527344,-4.806885,279.843750,6.965820,4.301758,-4.624268,-0.015372,0.024892,0.000000,-3.365766
684,6.839000,684,53.607422,-5.575439,290.953125,6.537354,4.484375,-5.013672,-0.015413,0.022469,0.000000,-3.895113
685,6.849000,685,54.660156,-6.006592,307.437500,6.510498,4.557617,-5.217285,-0.014825,0.021177,0.000000,-4.148811
686,6.860000,686,55.910156,-5.892090,323.640625,6.559570,4.923340,-5.660645,-0.015212,0.020268,0.000000,-4.617086
687,6.870000,687,57.203125,-4.470459,346.218750,7.315674,5.413818,-5.638672,-0.015637,0.021130,0.000000,-4.499863
688,6.879000,688,58.857422,-4.181396,362.390625,7.498779,5.932373,-5.653320,-0.016370,0.020693,0.000000,-4.503861
689,6.889000,689,58.402344,-3.885010,368.750000,6.981201,5.881836,-5.666260,-0.015951,0.018932,0.000000,-4.622551
690,6.900000,690,58.453125,-5.655518,370.437500,6.311035,5.689209,-5.084717,-0.015358,0.017037,0.000000,-4.175726
691,6.910000,691,57.896484,-5.337158,366.984375,5.365723,5.384766,-5.342041,-0.014673,0.014621,0.000000,-4.573842
692,6.919000,692,59.509766,-6.331055,369.296875,5.020264,5.355469,-5.072998,-0.014502,0.013594,0.000000,-4.355827
693,6.929000,693,59.550781,-5.162842,367.484375,4.718506,5.214844,-5.461426,-0.014191,0.012840,0.000000,-4.770057
694,6.940000,694,60.716797,-4.597900,374.109375,4.881836,5.398682,-5.127930,-0.014431,0.013049,0.000000,-4.401974
695,6.950000,695,61.320312,-5.781006,381.531250,5.178467,5.778320,-4.569092,-0.015145,0.013573,0.000000,-3.824354
696,6.960000,696,61.267578,-5.860352,390.031250,5.195068,5.763916,-4.325439,-0.014778,0.013320,0.000000,-3.595983
697,6.969000,697,60.693359,-5.802490,396.203125,4.596680,5.988037,-4.509033,-0.015114,0.011602,0.000000,-3.892576
698,6.980000,698,62.298828,-5.970703,400.140625,3.838989,5.728516,-4.498779,-0.014316,0.009594,0.000000,-3.986557
699,6.990000,699,64.222656,-6.207764,408.531250,3.229980,5.484131,-3.668457,-0.013424,0.007906,0.000000,-3.244025
700,7.000000,700,64.839844,-4.285645,411.406250,2.147949,5.011719,-3.858887,-0.012182,0.005221,0.000000,-3.572566
701,7.009000,701,66.144531,-5.131104,419.296875,1.519165,4.795898,-3.438965,-0.011438,0.003623,0.000000,-3.258004
702,7.019000,702,68.082031,-5.977051,431.375000,1.185181,4.866455,-2.606445,-0.011281,0.002747,0.000000,-2.486822
703,7.030000,703,70.476562,-5.552490,445.687500,0.451920,4.814453,-2.755493,-0.010802,0.001014,0.000000,-2.744011
704,7.040000,704,73.882812,-5.667236,462.718750,-0.613495,4.603271,-2.110352,-0.009948,-0.001326,0.000000,-2.264688
705,7.049000,705,76.324219,-8.552246,478.000000,-2.250366,4.163086,-1.773438,-0.008709,-0.004708,0.000000,-2.207247
706,7.059000,706,80.519531,-11.632324,497.453125,-3.953369,3.992188,-1.077576,-0.008025,-0.007947,0.000000,-1.810834
707,7.070000,707,82.785156,-12.973633,517.312500,-5.811279,3.773682,-0.395218,-0.007295,-0.011234,0.000000,-1.419833
708,7.080000,708,86.082031,-14.451172,533.312500,-7.746094,3.755859,0.756744,-0.007043,-0.014524,0.000000,-0.595326
709,7.089000,709,88.929688,-15.474609,546.875000,-9.946289,3.598022,1.436951,-0.006579,-0.018188,0.000000,-0.282269
710,7.099000,710,90.273438,-20.730469,556.687500,-12.449707,3.232666,1.890259,-0.005807,-0.022364,0.000000,-0.248989
711,7.110000,711,92.253906,-24.826172,564.312500,-14.727539,2.981812,3.009766,-0.005284,-0.026098,0.000000,0.470924
712,7.120000,712,91.757812,-28.386719,570.750000,-16.661133,2.799683,2.329224,-0.004905,-0.029192,0.000000,-0.488583
713,7.129000,713,92.593750,-28.439453,579.031250,-17.972656,2.909424,2.591064,-0.005025,-0.031039,0.000000,-0.425868
714,7.139000,714,93.109375,-26.787109,585.593750,-18.796875,2.988403,2.895874,-0.005103,-0.032099,0.000000,-0.229528
715,7.150000,715,94.171875,-26.008789,591.687500,-19.049805,3.032837,2.610718,-0.005126,-0.032196,0.000000,-0.554528
716,7.160000,716,94.960938,-23.490234,596.468750,-19.205078,3.357666,1.304749,-0.005629,-0.032198,0.000000,-1.885032
717,7.169000,717,94.539062,-19.994141,602.781250,-18.974609,3.890015,1.770996,-0.006453,-0.031478,0.000000,-1.333977
718,7.179000,718,94.117188,-15.239258,606.906250,-18.473633,4.351318,0.363220,-0.007170,-0.030439,0.000000,-2.610876
719,7.190000,719,93.125000,-12.705078,611.968750,-17.849609,4.956787,-0.112274,-0.008100,-0.029168,0.000000,-2.931407
720,7.200000,720,93.406250,-6.442139,617.968750,-17.091797,5.470459,-0.398148,-0.008852,-0.027658,0.000000,-3.038608
721,7.209000,721,93.457031,-0.943756,626.500000,-16.588867,6.002686,-2.158081,-0.009581,-0.026479,0.000000,-4.641739
722,7.219000,722,95.421875,3.229126,636.968750,-17.132812,6.424805,-1.935486,-0.010087,-0.026897,0.000000,-4.469517
723,7.230000,723,97.531250,1.849182,643.468750,-18.730469,6.565674,-1.538208,-0.010204,-0.029109,0.000000,-4.358337
724,7.240000,724,98.203125,-1.362366,648.250000,-21.247070,6.131104,-1.019653,-0.009458,-0.032776,0.000000,-4.251248
725,7.250000,725,101.886719,-6.167725,653.375000,-24.575195,5.473389,0.249016,-0.008377,-0.037613,0.000000,-3.634886
726,7.259000,726,106.937500,-16.704102,653.656250,-28.763672,5.109619,1.748962,-0.007817,-0.044004,0.000000,-3.087321
727,7.269000,727,111.074219,-28.199219,654.375000,-33.294922,4.003174,2.140381,-0.006118,-0.050880,0.000000,-3.683640
728,7.280000,728,111.890625,-39.199219,657.218750,-37.234375,3.074219,3.222900,-0.004678,-0.056654,0.000000,-3.299562
729,7.290000,729,108.011719,-41.013672,662.968750,-39.263672,2.970337,3.645508,-0.004480,-0.059224,0.000000,-2.935136
730,7.299000,730,100.636719,-37.574219,653.093750,-40.015625,3.209717,2.264771,-0.004915,-0.061271,0.000000,-4.085993
731,7.309000,731,88.429688,-35.695312,621.437500,-39.923828,3.357300,1.870056,-0.005402,-0.064244,0.000000,-4.003891
732,7.320000,732,74.976562,-26.346680,562.218750,-37.783203,3.453857,0.807587,-0.006143,-0.067204,0.000000,-4.392973
733,7.330000,733,57.351562,-10.179199,474.218750,-33.156250,3.090332,-0.316925,-0.006517,-0.069918,0.000000,-4.393145
734,7.339000,734,40.859375,7.515137,361.296875,-26.244141,1.889038,-1.484863,-0.005228,-0.072639,0.000000,-4.413543
735,7.349000,735,24.554688,18.881836,230.335938,-18.016602,0.499496,-3.002197,-0.002169,-0.078219,0.000000,-4.881889
736,7.360000,736,12.245117,14.835449,116.300781,-10.522949,-0.652405,-3.166138,0.005610,-0.090480,0.000000,-4.357303
737,7.370000,737,10.240723,8.734863,40.851562,-4.197754,-0.733490,-3.099854,0.017955,-0.102756,0.000000,-4.308987
738,7.379000,738,4.931885,10.404297,-17.012695,0.614410,-0.744751,-3.648804,-0.043776,-0.036115,0.000000,-3.371457
739,7.389000,739,9.343750,-7.876465,-25.605469,1.553223,-0.742615,-4.120117,-0.029002,-0.060660,0.000000,-4.915342
740,7.400000,740,8.845703,-5.541992,-25.382812,1.542175,-0.653076,-3.649414,-0.025729,-0.060757,0.000000,-4.329440
741,7.410000,741,8.640625,-4.866455,-25.905273,1.526123,-0.777283,-3.918457,-0.030005,-0.058912,0.000000,-4.573508
742,7.419000,742,9.094238,-5.073975,-25.649414,1.530884,-0.716858,-4.136963,-0.027948,-0.059685,0.000000,-4.821561
743,7.429000,743,9.125488,-4.919189,-25.651367,1.527100,-0.667603,-4.136963,-0.026026,-0.059533,0.000000,-4.808256
744,7.440000,744,8.729004,-4.988770,-25.518555,1.505676,-0.702698,-3.935181,-0.027537,-0.059003,0.000000,-4.587594
745,7.450000,745,8.455078,-5.270508,-26.026367,1.513062,-0.712189,-4.389160,-0.027364,-0.058136,0.000000,-5.024925
746,7.459000,746,8.114746,-5.894287,-25.885742,1.505127,-0.651794,-4.187500,-0.025180,-0.058145,0.000000,-4.807748
747,7.469000,747,8.153320,-5.059814,-26.156250,1.484985,-0.720276,-4.002441,-0.027537,-0.056774,0.000000,-4.604669
748,7.480000,748,7.998535,-5.218018,-25.895508,1.488647,-0.700775,-3.968750,-0.027062,-0.057487,0.000000,-4.569767
749,7.490000,749,9.458496,-5.097900,-25.651367,1.485168,-0.658844,-3.935181,-0.025685,-0.057898,0.000000,-4.613748
750,7.500000,750,8.974121,-5.198242,-26.416016,1.534668,-0.674164,-4.069824,-0.025521,-0.058096,0.000000,-4.723850
751,7.509000,751,8.390137,-5.765381,-26.017578,1.617554,-0.715637,-4.170654,-0.027506,-0.062172,0.000000,-4.850864
752,7.519000,752,9.150391,-5.597168,-25.768555,1.474487,-0.693237,-4.305176,-0.026902,-0.057220,0.000000,-4.979342
753,7.530000,753,9.051758,-6.401611,-25.499023,1.540161,-0.650238,-4.069824,-0.025501,-0.060401,0.000000,-4.779802
754,7.540000,754,8.879883,-5.232666,-25.644531,1.488586,-0.675537,-4.120117,-0.026342,-0.058047,0.000000,-4.773408
755,7.549000,755,8.366211,-4.933105,-25.902344,1.527771,-0.737335,-3.615967,-0.028466,-0.058982,0.000000,-4.249848
756,7.559000,756,8.420410,-5.764648,-26.018555,1.478943,-0.714783,-3.918457,-0.027472,-0.056842,0.000000,-4.555455
757,7.570000,757,8.330566,-5.673584,-26.147461,1.499878,-0.765137,-4.439697,-0.029262,-0.057362,0.000000,-5.083580
758,7.580000,758,8.115723,-5.862793,-26.142578,1.550781,-0.699951,-4.086670,-0.026774,-0.059320,0.000000,-4.725068
759,7.589000,759,8.179688,-5.307617,-25.638672,1.536743,-0.647644,-4.237793,-0.025260,-0.059938,0.000000,-4.862144
760,7.599000,760,7.999512,-5.309326,-26.279297,1.560486,-0.677765,-3.800903,-0.025791,-0.059381,0.000000,-4.412853
761,7.610000,761,8.426758,-5.116699,-26.156250,1.578735,-0.712799,-3.884888,-0.027252,-0.060358,0.000000,-4.532947
762,7.620000,762,8.602539,-6.129883,-26.654297,1.603882,-0.712006,-4.288330,-0.026713,-0.060173,0.000000,-4.969720
763,7.629000,763,8.085449,-5.894287,-26.142578,1.551514,-0.700928,-4.019287,-0.026812,-0.059348,0.000000,-4.657180
764,7.639000,764,8.151367,-5.276123,-26.152344,1.536438,-0.721039,-4.052734,-0.027571,-0.058750,0.000000,-4.677090
765,7.650000,765,8.180664,-5.368408,-26.022461,1.469299,-0.672394,-4.389160,-0.025839,-0.056463,0.000000,-4.989777
766,7.660000,766,7.997803,-5.678711,-26.658203,1.500549,-0.751495,-4.439697,-0.028190,-0.056288,0.000000,-5.049964
767,7.669000,767,8.874023,-6.248779,-26.398438,1.514099,-0.704224,-4.305176,-0.026677,-0.057356,0.000000,-4.980848
768,7.679000,768,7.933838,-5.773926,-26.013672,1.571594,-0.776367,-4.170654,-0.029845,-0.060414,0.000000,-4.822291
769,7.690000,769,8.326660,-5.921387,-25.757812,1.528687,-0.717468,-4.086670,-0.027854,-0.059348,0.000000,-4.745781
770,7.700000,770,8.573242,-6.007080,-26.657227,1.554626,-0.688507,-4.170654,-0.025828,-0.058319,0.000000,-4.825790
771,7.710000,771,8.297852,-6.228027,-26.779297,1.583313,-0.745056,-4.271484,-0.027822,-0.059125,0.000000,-4.935368
772,7.719000,772,7.902344,-6.205078,-26.649414,1.559631,-0.707977,-3.784058,-0.026566,-0.058524,0.000000,-4.411381
773,7.730000,773,8.326660,-6.166748,-26.266602,1.535156,-0.695251,-3.952026,-0.026469,-0.058445,0.000000,-4.601908
774,7.740000,774,7.658447,-6.178955,-26.518555,1.535767,-0.738434,-4.254639,-0.027846,-0.057913,0.000000,-4.870220
775,7.750000,775,8.695801,-5.635742,-26.150391,1.637573,-0.682922,-3.733521,-0.026115,-0.062621,0.000000,-4.425242
776,7.759000,776,8.520508,-4.806396,-26.163086,1.524841,-0.685272,-4.069824,-0.026192,-0.058282,0.000000,-4.692308
777,7.769000,777,8.124023,-5.059814,-26.412109,1.577637,-0.649780,-3.918457,-0.024602,-0.059732,0.000000,-4.528197
778,7.780000,778,8.213379,-5.090088,-26.027344,1.462463,-0.766327,-4.036133,-0.029443,-0.056189,0.000000,-4.647507
779,7.790000,779,8.375000,-4.129883,-26.428711,1.508606,-0.735474,-4.355713,-0.027829,-0.057082,0.000000,-4.948704
780,7.799000,780,8.451172,-5.150146,-24.744141,1.278015,-0.805328,-3.867920,-0.032546,-0.051649,0.000000,-4.472034
781,7.809000,781,22.851562,-44.886719,82.773438,-12.487305,-3.030640,-3.608887,0.036614,-0.150861,0.000000,-5.412834
782,7.820000,782,87.929688,-247.765625,546.062500,-52.816406,-14.753906,-4.263428,0.027019,-0.096722,0.000000,-6.073879
783,7.830000,783,102.832031,19.953125,555.031250,-52.128906,-13.214355,3.725342,0.023808,-0.093921,0.000000,-6.407762
784,7.839000,784,90.675781,128.804688,603.812500,-61.550781,-21.892578,5.973145,0.036257,-0.101937,0.000000,-7.940167
785,7.849000,785,187.062500,-45.775391,717.031250,-68.406250,-25.508789,5.338867,0.035576,-0.095402,0.000000,-10.878794
786,7.860000,786,215.343750,-21.609375,938.031250,-65.730469,-25.150391,6.635254,0.026812,-0.070073,0.000000,-7.875096
787,7.870000,787,208.695312,365.687500,1976.750000,-17.669922,-1.496704,3.396973,0.000757,-0.008939,0.000000,1.254590
788,7.879000,788,208.023438,3.457153,1207.250000,-49.462891,-12.045898,2.192017,0.009978,-0.040972,0.000000,-6.365520
789,7.889000,789,214.039062,-156.921875,780.812500,-62.886719,-13.979004,1.792175,0.017903,-0.080540,0.000000,-12.637158
790,7.900000,790,165.054688,-154.757812,638.843750,-66.398438,-13.214355,3.782471,0.020685,-0.103935,0.000000,-10.171409
791,7.910000,791,149.875000,-154.492188,600.562500,-66.058594,-11.351562,4.723145,0.018902,-0.109995,0.000000,-8.842145
792,7.919000,792,152.656250,-159.046875,586.468750,-65.250000,-10.323242,5.147705,0.017602,-0.111259,0.000000,-9.037094
793,7.929000,793,144.578125,-138.671875,580.906250,-64.453125,-10.323730,6.186035,0.017772,-0.110953,0.000000,-7.390857
794,7.940000,794,140.179688,-104.171875,599.531250,-60.373047,-9.496582,6.386963,0.015840,-0.100700,0.000000,-6.079106
795,7.950000,795,130.390625,-49.068359,635.937500,-51.806641,-6.923096,5.566406,0.010886,-0.081465,0.000000,-4.521686
796,7.960000,796,124.097656,-27.917969,577.937500,-44.421875,-5.816162,3.610474,0.010064,-0.076863,0.000000,-5.647059
797,7.969000,797,116.765625,-42.671875,501.156250,-38.802734,-5.304443,2.593018,0.010584,-0.077426,0.000000,-5.996070
798,7.980000,798,98.476562,-31.552734,446.828125,-32.394531,-4.333496,1.812500,0.009698,-0.072499,0.000000,-5.020929
799,7.990000,799,84.082031,-17.195312,404.140625,-27.156250,-3.717407,1.023682,0.009198,-0.067195,0.000000,-4.468047
800,8.000000,800,74.773438,-10.854980,352.671875,-23.750000,-3.897217,0.539612,0.011051,-0.067343,0.000000,-4.375906
801,8.009000,801,68.171875,-10.755859,293.890625,-21.558594,-4.244629,-0.048059,0.014443,-0.073356,0.000000,-4.893519
802,8.019000,802,62.138672,-12.600098,243.609375,-19.661133,-4.474609,-0.141090,0.018368,-0.080708,0.000000,-4.924716
803,8.029000,803,58.099609,-11.406738,203.671875,-17.923828,-4.520752,-0.312271,0.022196,-0.088003,0.000000,-5.172050
804,8.039000,804,51.726562,-10.641602,172.437500,-16.045898,-4.313232,-0.260666,0.025013,-0.093053,0.000000,-4.807818
805,8.050000,805,48.548828,-8.958008,148.890625,-14.503418,-4.102051,-0.802307,0.027551,-0.097410,0.000000,-5.284643
806,8.060000,806,44.447266,-7.509766,131.562500,-12.866211,-3.790039,-0.813477,0.028808,-0.097795,0.000000,-4.943875
807,8.070000,807,40.462891,-5.990967,117.179688,-11.345703,-3.561401,-1.184021,0.030393,-0.096823,0.000000,-4.919683
808,8.080000,808,38.287109,-4.939697,110.523438,-10.023926,-3.291626,-0.966370,0.029782,-0.090695,0.000000,-4.291705
809,8.089000,809,35.759766,-4.752930,110.890625,-8.636719,-2.999756,-0.808746,0.027051,-0.077885,0.000000,-3.465323
810,8.099000,810,32.787109,-2.106812,121.320312,-6.918701,-2.393677,-1.218384,0.019730,-0.057028,0.000000,-3.046612
811,8.109000,811,30.914062,3.001343,137.554688,-4.855469,-1.864685,-1.988831,0.013556,-0.035298,0.000000,-3.120736
812,8.119000,812,31.983398,8.291504,156.468750,-2.414307,-1.040527,-3.132324,0.006650,-0.015430,0.000000,-3.680966
813,8.130000,813,31.674805,14.135254,172.531250,0.054314,-0.326126,-2.807495,0.001890,0.000315,0.000000,-2.824243
814,8.140000,814,34.240234,19.361328,185.460938,2.162109,0.433578,-3.171021,-0.002338,0.011658,0.000000,-2.726583
815,8.150000,815,33.925781,22.956055,194.726562,3.626343,0.814697,-3.362061,-0.004184,0.018623,0.000000,-2.634226
816,8.160000,816,34.699219,26.701172,198.906250,4.202148,0.972565,-3.330200,-0.004890,0.021126,0.000000,-2.466578
817,8.169000,817,34.054688,26.230469,202.125000,4.371826,1.078186,-3.440796,-0.005334,0.021629,0.000000,-2.564296
818,8.179000,818,35.021484,20.729492,201.437500,4.044678,0.941711,-3.146118,-0.004675,0.020079,0.000000,-2.346010
819,8.189000,819,36.187500,15.742676,199.195312,3.381470,0.809814,-3.225586,-0.004065,0.016976,0.000000,-2.547279
820,8.199000,820,36.072266,11.012695,194.898438,2.852783,0.642029,-3.203491,-0.003294,0.014637,0.000000,-2.639214
821,8.210000,821,35.019531,9.670410,189.648438,2.265625,0.387146,-3.452759,-0.002041,0.011946,0.000000,-3.014659
822,8.220000,822,34.599609,7.734619,185.382812,1.796631,0.502106,-3.114380,-0.002708,0.009691,0.000000,-2.758110
823,8.230000,823,33.333984,6.256592,179.500000,1.421509,0.403061,-3.599487,-0.002245,0.007919,0.000000,-3.321457
824,8.240000,824,32.558594,4.947021,176.320312,1.201416,0.466919,-3.564453,-0.002648,0.006814,0.000000,-3.329504
825,8.250000,825,31.144531,3.180420,173.406250,1.039185,0.368225,-3.165039,-0.002123,0.005993,0.000000,-2.971643
826,8.259000,826,31.677734,1.816589,172.132812,0.934540,0.424393,-3.839233,-0.002465,0.005429,0.000000,-3.662771
827,8.269000,827,31.710938,1.328369,170.734375,0.970673,0.493011,-3.321655,-0.002888,0.005685,0.000000,-3.137534
828,8.279000,828,31.144531,2.453247,168.789062,0.875610,0.429184,-3.925903,-0.002543,0.005188,0.000000,-3.758100
829,8.289000,829,30.070312,2.033813,171.367188,0.930115,0.426285,-3.454224,-0.002488,0.005428,0.000000,-3.285954
830,8.300000,830,32.416016,0.456116,178.453125,0.707520,0.500305,-3.831543,-0.002804,0.003965,0.000000,-3.701743
831,8.310000,831,33.601562,-1.355652,186.679688,0.513245,0.519012,-3.681274,-0.002780,0.002749,0.000000,-3.592661
832,8.320000,832,34.904297,-3.552002,191.578125,0.146446,0.509766,-4.350586,-0.002661,0.000764,0.000000,-4.333356
833,8.330000,833,35.763672,-4.597412,194.398438,-0.292587,0.440094,-4.260254,-0.002264,-0.001505,0.000000,-4.324490
834,8.339000,834,36.587891,-6.081299,198.906250,-0.652863,0.323135,-4.039062,-0.001625,-0.003282,0.000000,-4.169033
835,8.349000,835,38.718750,-6.670654,205.937500,-1.083374,0.202538,-4.665771,-0.000983,-0.005261,0.000000,-4.876019
836,8.359000,836,41.509766,-8.530273,215.312500,-1.346252,0.148735,-4.930908,-0.000691,-0.006253,0.000000,-5.196343
837,8.369000,837,43.798828,-10.711426,228.421875,-1.396851,0.302292,-4.984375,-0.001323,-0.006115,0.000000,-5.266390
838,8.380000,838,47.207031,-11.300781,242.078125,-1.877808,0.182343,-4.845215,-0.000753,-0.007757,0.000000,-5.219913
839,8.390000,839,50.421875,-12.725098,254.343750,-2.405884,0.171600,-4.480225,-0.000675,-0.009459,0.000000,-4.965760
840,8.400000,840,52.578125,-14.134277,266.343750,-3.024902,-0.060905,-4.875244,0.000229,-0.011357,0.000000,-5.469149
841,8.410000,841,56.240234,-17.301758,282.078125,-3.305298,0.013820,-4.984863,-0.000049,-0.011718,0.000000,-5.644715
842,8.419000,842,59.060547,-19.541016,299.468750,-3.448242,0.118805,-4.915283,-0.000397,-0.011515,0.000000,-5.603090
843,8.429000,843,62.683594,-20.509766,320.281250,-3.280151,0.328552,-4.736572,-0.001026,-0.010241,0.000000,-5.399584
844,8.439000,844,65.152344,-20.518555,338.625000,-2.817017,0.487656,-5.295166,-0.001440,-0.008319,0.000000,-5.866716
845,8.449000,845,67.503906,-16.063477,356.281250,-2.272827,0.787811,-4.531982,-0.002211,-0.006379,0.000000,-4.998130
846,8.460000,846,70.953125,-13.950684,373.937500,-1.855835,0.967743,-4.463623,-0.002588,-0.004963,0.000000,-4.851864
847,8.470000,847,74.664062,-12.517090,391.984375,-1.399963,1.249023,-5.041016,-0.003186,-0.003571,0.000000,-5.347561
848,8.480000,848,78.082031,-12.441406,408.890625,-1.025391,1.301025,-5.073486,-0.003182,-0.002508,0.000000,-5.308882
849,8.490000,849,79.582031,-11.569336,428.734375,-0.191238,1.664307,-4.427734,-0.003882,-0.000446,0.000000,-4.508143
850,8.500000,850,83.179688,-9.355957,448.250000,0.700928,2.065918,-4.703857,-0.004609,0.001564,0.000000,-4.616910
851,8.509000,851,85.773438,-7.890869,469.500000,1.495361,2.510864,-4.926758,-0.005348,0.003185,0.000000,-4.695769
852,8.519000,852,86.937500,-4.487305,493.000000,2.653442,2.901855,-5.189209,-0.005886,0.005382,0.000000,-4.747704
853,8.529000,853,90.785156,-1.428406,517.125000,3.612549,3.438965,-5.141846,-0.006650,0.006986,0.000000,-4.517135
854,8.539000,854,93.863281,-1.532227,540.031250,4.512451,3.656738,-5.624023,-0.006771,0.008356,0.000000,-4.850086
855,8.550000,855,97.597656,-2.514893,561.406250,5.296875,4.030273,-5.807129,-0.007179,0.009435,0.000000,-4.904348
856,8.560000,856,102.195312,-1.943237,583.000000,6.088867,4.481201,-5.667969,-0.007686,0.010444,0.000000,-4.615575
857,8.570000,857,104.964844,-1.539856,598.500000,6.707275,4.727295,-6.364258,-0.007899,0.011207,0.000000,-5.200099
858,8.580000,858,106.199219,-4.069336,609.906250,7.316162,4.597168,-6.314697,-0.007537,0.011996,0.000000,-5.071452
859,8.589000,859,107.140625,-5.353027,616.156250,7.823730,4.887939,-6.850098,-0.007933,0.012698,0.000000,-5.532130
860,8.599000,860,106.890625,-5.003174,619.343750,8.293945,5.005615,-6.654541,-0.008082,0.013392,0.000000,-5.263551
861,8.609000,861,106.484375,-4.420166,619.343750,8.645996,5.210938,-7.087402,-0.008414,0.013960,0.000000,-5.638077
862,8.619000,862,106.109375,-3.655029,614.906250,8.883789,5.150146,-6.910156,-0.008375,0.014447,0.000000,-5.407765
863,8.630000,863,105.855469,-3.665649,606.781250,8.753906,5.179932,-7.112793,-0.008537,0.014427,0.000000,-5.616931
864,8.640000,864,104.910156,-4.148193,599.781250,8.381348,5.025391,-7.026855,-0.008379,0.013974,0.000000,-5.595597
865,8.650000,865,104.687500,-5.004639,594.187500,8.041016,4.961914,-6.970459,-0.008351,0.013533,0.000000,-5.595537
866,8.660000,866,103.957031,-7.098877,590.250000,7.704590,4.764160,-7.060547,-0.008071,0.013053,0.000000,-5.760884
867,8.669000,867,104.222656,-9.626953,588.000000,7.355957,4.878906,-6.945068,-0.008297,0.012510,0.000000,-5.721108
868,8.679000,868,104.871094,-11.071289,589.562500,7.252930,4.917480,-7.044678,-0.008341,0.012302,0.000000,-5.846874
869,8.689000,869,104.613281,-11.437500,593.156250,7.120850,4.961914,-7.565918,-0.008365,0.012005,0.000000,-6.405712
870,8.699000,870,104.695312,-10.716309,596.937500,7.191895,5.066650,-7.264893,-0.008488,0.012048,0.000000,-6.094482
871,8.710000,871,105.957031,-8.384766,601.968750,7.359375,5.042480,-7.176514,-0.008377,0.012226,0.000000,-5.951371
872,8.720000,872,108.277344,-7.912354,602.968750,7.439209,4.939697,-6.720215,-0.008192,0.012338,0.000000,-5.449149
873,8.730000,873,110.410156,-6.435303,599.718750,7.031250,5.080566,-6.919434,-0.008472,0.011724,0.000000,-5.679475
874,8.740000,874,111.054688,-6.512207,595.906250,6.806641,4.759277,-7.037354,-0.007987,0.011422,0.000000,-5.820860
875,8.750000,875,113.437500,-8.682617,593.343750,6.357422,4.577148,-6.738770,-0.007714,0.010715,0.000000,-5.590315
876,8.759000,876,114.542969,-9.154297,590.250000,6.050537,4.506592,-6.712891,-0.007635,0.010251,0.000000,-5.608626
877,8.769000,877,115.234375,-11.456055,588.281250,5.740967,4.443848,-6.401855,-0.007554,0.009759,0.000000,-5.363835
878,8.779000,878,114.953125,-12.191406,588.031250,5.621826,4.457275,-6.566406,-0.007580,0.009560,0.000000,-5.559817
879,8.789000,879,115.726562,-11.050781,588.281250,5.730957,4.530518,-6.305176,-0.007701,0.009742,0.000000,-5.262888
880,8.800000,880,115.707031,-12.220215,584.750000,5.808838,4.568115,-6.490723,-0.007812,0.009934,0.000000,-5.436768
881,8.810000,881,114.515625,-11.591309,574.843750,6.031494,4.568359,-6.191895,-0.007947,0.010492,0.000000,-5.082468
882,8.820000,882,113.796875,-13.191406,565.312500,6.055908,4.741943,-6.497070,-0.008388,0.010712,0.000000,-5.388674
883,8.830000,883,110.867188,-16.541992,551.500000,5.943604,4.817871,-6.400146,-0.008736,0.010777,0.000000,-5.349823
884,8.839000,884,107.539062,-18.377930,533.125000,5.798340,4.879639,-6.829834,-0.009153,0.010876,0.000000,-5.828436
885,8.849000,885,102.496094,-20.358398,509.375000,5.615479,4.765869,-6.760742,-0.009356,0.011024,0.000000,-5.821279
886,8.859000,886,97.695312,-20.319336,485.109375,5.384033,4.783203,-6.617188,-0.009860,0.011099,0.000000,-5.733256
887,8.869000,887,91.746094,-22.844727,459.578125,5.353271,4.710938,-6.397217,-0.010251,0.011648,0.000000,-5.562709
888,8.880000,888,86.429688,-24.420898,434.000000,5.371338,4.325928,-6.360840,-0.009968,0.012376,0.000000,-5.534573
889,8.890000,889,80.406250,-24.526367,406.546875,5.307373,4.226074,-5.744873,-0.010395,0.013055,0.000000,-4.950141
890,8.900000,890,75.125000,-23.568359,377.265625,5.126465,4.051758,-6.048096,-0.010740,0.013588,0.000000,-5.280381
891,8.910000,891,69.695312,-22.333984,345.031250,5.010010,3.846558,-5.404297,-0.011148,0.014520,0.000000,-4.641278
892,8.919000,892,63.644531,-21.602539,309.562500,5.007568,3.481812,-5.213867,-0.011248,0.016176,0.000000,-4.427311
893,8.929000,893,56.730469,-19.390625,273.406250,5.147949,3.136353,-5.236328,-0.011471,0.018829,0.000000,-4.390592
894,8.939000,894,49.205078,-15.914551,233.859375,5.442627,2.893311,-4.372803,-0.012372,0.023273,0.000000,-3.424544
895,8.949000,895,39.921875,-13.375000,192.648438,5.740967,2.553223,-4.063721,-0.013253,0.029800,0.000000,-3.051302
896,8.960000,896,31.784180,-11.203613,151.164062,5.825439,2.078979,-4.080566,-0.013753,0.038537,0.000000,-3.009778
897,8.970000,897,24.015625,-8.742676,114.136719,5.790527,1.696472,-3.663086,-0.014864,0.050733,0.000000,-2.574642
898,8.980000,898,17.122070,-6.885742,79.625000,5.311768,1.226318,-4.554443,-0.015401,0.066710,0.000000,-3.518282
899,8.990000,899,12.144531,-5.026611,48.179688,4.878906,0.861908,-4.207764,-0.017889,0.101265,0.000000,-3.067873
900,9.000000,900,7.235352,-3.842773,25.265625,4.166504,0.445145,-4.382812,-0.017619,0.164908,0.000000,-3.257349
901,9.009000,901,4.309082,-0.895020,9.084961,3.484375,0.160942,-4.490723,-0.017715,0.383532,0.000000,-2.853906
902,9.019000,902,1.887878,-0.607758,-1.800049,2.695801,-0.095715,-3.950439,-0.053173,-1.497626,0.000000,-6.810092
903,9.029000,903,1.160156,-0.050579,-8.733887,2.226318,-0.414307,-4.018066,-0.047437,-0.254906,0.000000,-4.316196
904,9.039000,904,0.661987,0.349731,-12.586914,2.127441,-0.482025,-3.867065,-0.038296,-0.169020,0.000000,-3.965561
905,9.050000,905,-0.857605,2.487793,-15.947266,1.939819,-0.571991,-3.799927,-0.035868,-0.121640,0.000000,-3.606377
906,9.060000,906,-0.786896,2.126221,-19.150391,1.789673,-0.600983,-4.052490,-0.031382,-0.093454,0.000000,-3.912226
907,9.070000,907,-0.473633,1.860962,-21.971680,1.706177,-0.693939,-3.380371,-0.031583,-0.077653,0.000000,-3.284817
908,9.080000,908,2.033081,-1.754822,-25.139648,1.588989,-0.808228,-4.136963,-0.032150,-0.063207,0.000000,-4.321883
909,9.089000,909,8.175293,-6.046875,-26.139648,1.555298,-0.818481,-4.624512,-0.031312,-0.059500,0.000000,-5.300277
910,9.099000,910,6.652344,-6.291748,-26.125977,1.515320,-0.814209,-3.918457,-0.031165,-0.058001,0.000000,-4.500377
911,9.109000,911,7.483154,-4.735596,-25.257812,1.407043,-0.832184,-4.002441,-0.032948,-0.055707,0.000000,-4.575334
912,9.119000,912,7.959473,-5.990967,-25.370117,1.553223,-0.751251,-4.086670,-0.029612,-0.061223,0.000000,-4.751371
913,9.130000,913,8.333984,-5.272461,-26.154297,1.490112,-0.787720,-4.288330,-0.030118,-0.056974,0.000000,-4.921947
914,9.140000,914,7.998535,-5.463379,-26.405273,1.587463,-0.846039,-4.322021,-0.032041,-0.060119,0.000000,-4.977936
915,9.150000,915,8.426758,-5.054932,-26.029297,1.553955,-0.808136,-4.573975,-0.031047,-0.059700,0.000000,-5.233995
916,9.160000,916,8.640625,-4.989014,-26.160156,1.483154,-0.730255,-4.103271,-0.027915,-0.056695,0.000000,-4.732420
917,9.169000,917,8.456543,-5.208252,-26.283203,1.511719,-0.760345,-4.338867,-0.028929,-0.057517,0.000000,-4.975927
918,9.179000,918,8.277344,-4.872070,-26.416016,1.572937,-0.740570,-4.237793,-0.028035,-0.059545,0.000000,-4.867254
919,9.189000,919,8.763672,-5.078125,-26.672852,1.531982,-0.728058,-4.254639,-0.027296,-0.057436,0.000000,-4.896601
920,9.199000,920,8.185547,-4.935547,-26.415039,1.528381,-0.815186,-4.086670,-0.030861,-0.057860,0.000000,-4.712602
921,9.210000,921,8.007324,-3.892578,-25.275391,1.432617,-0.790802,-3.867920,-0.031287,-0.056680,0.000000,-4.443566
922,9.220000,922,7.282227,-2.798584,-24.132812,1.428101,-0.853516,-4.405762,-0.035367,-0.059177,0.000000,-4.935678
923,9.230000,923,4.945557,0.168839,-19.287109,1.213074,-0.876923,-4.085938,-0.045467,-0.062896,0.000000,-4.389315
924,9.240000,924,3.087646,2.526733,-13.665527,0.966034,-0.791687,-4.354492,-0.057933,-0.070691,0.000000,-4.426381
925,9.250000,925,5.147461,-2.170410,-6.289307,0.820038,-0.830841,-3.816040,-0.132104,-0.130386,0.000000,-4.773916
926,9.259000,926,7.864746,-8.295898,4.599365,0.632202,-0.597198,-3.378540,0.129844,0.137454,0.000000,-1.220328
927,9.269000,927,11.495605,-14.471680,19.321289,0.774719,-0.327332,-2.498901,0.016941,0.040097,0.000000,-1.792794
928,9.279000,928,15.086426,-20.321289,46.898438,1.438660,0.570374,-3.119263,-0.012162,0.030676,0.000000,-2.903616
929,9.289000,929,19.925781,-18.810547,88.609375,3.383667,1.956787,-4.563721,-0.022083,0.038186,0.000000,-4.218227
930,9.300000,930,26.242188,-8.683105,136.460938,6.142822,3.651489,-5.107178,-0.026758,0.045015,0.000000,-4.158226
931,9.310000,931,36.029297,-2.202759,169.718750,8.278809,4.829102,-6.239746,-0.028454,0.048780,0.000000,-4.544929
932,9.320000,932,43.228516,-1.996582,185.929688,9.133301,5.106201,-6.980225,-0.027463,0.049122,0.000000,-4.911572
933,9.330000,933,48.500000,-4.390625,190.203125,9.303223,4.950195,-7.074219,-0.026026,0.048912,0.000000,-4.816255
934,9.339000,934,51.873047,-3.598145,193.671875,9.396973,4.898438,-7.437500,-0.025292,0.048520,0.000000,-5.011622
935,9.349000,935,55.341797,-2.169189,200.984375,9.838867,5.072754,-8.300781,-0.025240,0.048953,0.000000,-5.646362
936,9.359000,936,56.183594,-1.694946,209.335938,10.301270,5.298828,-8.143066,-0.025313,0.049209,0.000000,-5.421216
937,9.369000,937,56.863281,-2.880737,216.171875,10.713867,5.537842,-8.290039,-0.025618,0.049562,0.000000,-5.545590
938,9.380000,938,57.160156,-3.180054,223.132812,11.128418,5.817627,-8.259277,-0.026072,0.049874,0.000000,-5.491411
939,9.390000,939,56.332031,-2.356445,228.523438,11.519043,6.189941,-8.403809,-0.027087,0.050406,0.000000,-5.628142
940,9.400000,940,55.416016,-3.263794,234.429688,12.135254,6.507568,-8.486816,-0.027759,0.051765,0.000000,-5.708806
941,9.410000,941,54.576172,-3.366821,237.500000,12.318359,6.681152,-8.796387,-0.028131,0.051867,0.000000,-6.060409
942,9.419000,942,53.765625,-3.326782,240.578125,12.591309,6.856934,-7.734619,-0.028502,0.052338,0.000000,-5.015469
943,9.429000,943,54.445312,-3.644043,243.531250,12.758301,6.996582,-8.032227,-0.028730,0.052389,0.000000,-5.284596
944,9.439000,944,55.236328,-3.431641,246.093750,12.887695,7.068115,-8.190918,-0.028721,0.052369,0.000000,-5.396805
945,9.449000,945,56.000000,-3.026001,249.156250,12.967285,7.116455,-8.014160,-0.028562,0.052045,0.000000,-5.186081
946,9.460000,946,57.480469,-3.377808,251.984375,13.066406,7.275879,-7.949463,-0.028874,0.051854,0.000000,-5.066401
947,9.470000,947,57.910156,-3.951782,255.703125,13.051758,7.361084,-7.859375,-0.028788,0.051043,0.000000,-5.017251
948,9.480000,948,58.978516,-4.166504,263.765625,13.208984,7.468506,-8.458008,-0.028315,0.050078,0.000000,-5.622427
949,9.490000,949,61.341797,-3.491455,274.375000,13.574707,7.853760,-8.927246,-0.028624,0.049475,0.000000,-5.992300
950,9.500000,950,63.412109,-3.888794,289.078125,13.961914,8.328613,-8.982422,-0.028811,0.048298,0.000000,-6.031779
951,9.509000,951,65.718750,-4.811523,302.515625,14.408691,8.638184,-8.872559,-0.028555,0.047630,0.000000,-5.879793
952,9.519000,952,69.246094,-5.877930,315.546875,14.700195,9.097656,-9.645996,-0.028831,0.046586,0.000000,-6.589538
953,9.529000,953,72.460938,-6.833008,330.750000,15.010742,9.432617,-9.472656,-0.028519,0.045384,0.000000,-6.378963
954,9.539000,954,75.132812,-7.873047,349.656250,15.672852,10.002441,-9.532715,-0.028607,0.044824,0.000000,-6.390213
955,9.550000,955,78.113281,-9.331055,372.890625,16.519531,10.671875,-9.952148,-0.028619,0.044301,0.000000,-6.758679
956,9.560000,956,81.261719,-8.411621,397.718750,17.652344,11.473145,-9.932617,-0.028847,0.044384,0.000000,-6.568551
957,9.570000,957,84.707031,-6.959229,422.156250,18.797852,12.186523,-9.884277,-0.028867,0.044528,0.000000,-6.313321
958,9.580000,958,87.117188,-5.226074,439.296875,19.502930,12.818848,-10.304688,-0.029180,0.044396,0.000000,-6.589551
959,9.589000,959,88.765625,-5.092773,449.218750,19.860352,13.014648,-10.448730,-0.028972,0.044211,0.000000,-6.671872
960,9.599000,960,90.242188,-6.456543,453.296875,19.752930,13.148438,-10.841797,-0.029006,0.043576,0.000000,-7.096670
961,9.609000,961,89.656250,-7.806396,455.500000,19.483398,13.037598,-10.611816,-0.028623,0.042774,0.000000,-7.000330
962,9.619000,962,89.769531,-9.264160,457.421875,19.216797,13.039062,-10.497559,-0.028506,0.042011,0.000000,-6.990322
963,9.630000,963,88.871094,-8.177246,460.843750,19.209961,13.119141,-10.620605,-0.028468,0.041684,0.000000,-7.148861
964,9.640000,964,89.363281,-7.333740,468.234375,19.364258,13.238281,-10.078125,-0.028273,0.041356,0.000000,-6.589770
965,9.650000,965,89.687500,-5.728516,476.125000,19.593750,13.404297,-10.527832,-0.028153,0.041153,0.000000,-6.998238
966,9.660000,966,91.246094,-5.580566,485.812500,20.085938,13.576172,-10.897461,-0.027945,0.041345,0.000000,-7.280838
967,9.669000,967,93.503906,-3.574707,499.046875,20.805664,14.036621,-11.046875,-0.028127,0.041691,0.000000,-7.249167
968,9.679000,968,96.718750,-2.535767,517.531250,22.025391,14.715332,-11.381836,-0.028434,0.042559,0.000000,-7.337726
969,9.689000,969,99.796875,-1.254822,533.750000,23.055664,15.269531,-11.333008,-0.028608,0.043196,0.000000,-7.058118
970,9.699000,970,100.683594,0.235268,543.281250,23.906250,15.475098,-11.448242,-0.028485,0.044003,0.000000,-7.011115
971,9.710000,971,103.222656,1.771179,551.312500,24.665039,15.721680,-11.134766,-0.028517,0.044739,0.000000,-6.466203
972,9.720000,972,105.046875,3.254150,555.000000,25.247070,15.847656,-11.601562,-0.028554,0.045490,0.000000,-6.730037
973,9.730000,973,106.769531,5.017334,554.718750,25.666016,15.848633,-11.730957,-0.028571,0.046269,0.000000,-6.647541
974,9.740000,974,106.250000,6.307861,547.312500,25.826172,15.639648,-11.875488,-0.028575,0.047187,0.000000,-6.681594
975,9.750000,975,104.687500,6.711182,540.468750,26.054688,15.567871,-11.326660,-0.028804,0.048208,0.000000,-6.086618
976,9.759000,976,102.082031,6.611084,530.875000,25.859375,15.371094,-10.866211,-0.028954,0.048711,0.000000,-5.702290
977,9.769000,977,97.671875,6.159180,514.218750,25.311523,14.997559,-11.103516,-0.029166,0.049223,0.000000,-6.116151
978,9.779000,978,93.234375,6.340088,494.437500,24.293945,14.409180,-10.419434,-0.029143,0.049135,0.000000,-5.653641
979,9.789000,979,88.183594,5.279053,473.875000,23.214844,13.751465,-9.829102,-0.029019,0.048989,0.000000,-5.355848
980,9.800000,980,83.832031,4.919678,454.078125,22.025391,13.066895,-9.029297,-0.028777,0.048506,0.000000,-4.821391
981,9.810000,981,79.917969,3.554688,432.296875,20.765625,12.391602,-8.632812,-0.028665,0.048036,0.000000,-4.692014
982,9.820000,982,76.792969,2.738892,411.046875,19.395508,11.740723,-8.236328,-0.028563,0.047186,0.000000,-4.534573
983,9.830000,983,71.613281,1.778748,388.625000,18.144531,10.819336,-7.705078,-0.027840,0.046689,0.000000,-4.312002
984,9.839000,984,68.183594,1.095459,367.968750,16.703125,9.992188,-7.467529,-0.027155,0.045393,0.000000,-4.342739
985,9.849000,985,64.812500,-0.599609,346.921875,15.264160,9.161621,-7.096924,-0.026408,0.043999,0.000000,-4.261084
986,9.859000,986,61.734375,-1.078857,327.906250,14.014160,8.502930,-6.359619,-0.025931,0.042738,0.000000,-3.749172
987,9.869000,987,59.375000,-3.205444,312.218750,13.043945,7.939697,-6.362793,-0.025430,0.041778,0.000000,-3.963725
988,9.880000,988,57.677734,-3.291870,297.890625,12.184570,7.448975,-6.155029,-0.025006,0.040903,0.000000,-3.878162
989,9.890000,989,55.490234,-2.719849,287.125000,11.445312,7.023438,-5.809326,-0.024461,0.039862,0.000000,-3.663918
990,9.900000,990,53.353516,-2.740845,276.109375,10.767090,6.620605,-5.584229,-0.023978,0.038996,0.000000,-3.569389
991,9.910000,991,51.617188,-2.728760,266.265625,10.246094,6.348633,-5.674316,-0.023843,0.038481,0.000000,-3.753112
992,9.919000,992,49.394531,-2.516235,257.812500,9.971680,6.163086,-5.268311,-0.023905,0.038678,0.000000,-3.417979
993,9.929000,993,48.001953,-3.089966,250.523438,9.693359,5.997070,-5.084229,-0.023938,0.038692,0.000000,-3.300884
994,9.939000,994,45.291016,-3.291382,245.281250,9.495605,5.825439,-4.534912,-0.023750,0.038713,0.000000,-2.859725
995,9.949000,995,43.611328,-3.088745,240.015625,9.057129,5.752686,-4.928223,-0.023968,0.037736,0.000000,-3.356555
996,9.960000,996,43.376953,-2.222412,236.679688,8.809570,5.649170,-4.870850,-0.023868,0.037221,0.000000,-3.309340
997,9.970000,997,42.281250,-4.412109,232.679688,8.480957,5.521973,-4.868896,-0.023732,0.036449,0.000000,-3.432493
998,9.980000,998,41.523438,-3.895752,229.468750,8.311523,5.427246,-4.305420,-0.023651,0.036221,0.000000,-2.893551
999,9.990000,999,41.689453,-3.587158,227.406250,8.215332,5.286377,-4.478271,-0.023246,0.036126,0.000000,-3.055577
1000,10.000000,1000,41.652344,-2.955688,226.242188,7.995850,5.189453,-4.084961,-0.022938,0.035342,0.000000,-2.680680
1001,10.009000,1001,41.310547,-3.474365,223.031250,7.852295,5.007080,-4.376465,-0.022450,0.035207,0.000000,-3.000038
1002,10.019000,1002,41.824219,-3.555786,222.648438,7.831299,4.971680,-4.300537,-0.022330,0.035173,0.000000,-2.908837
1003,10.029000,1003,42.982422,-3.187622,223.921875,7.731445,4.957520,-4.450684,-0.022140,0.034527,0.000000,-3.037184
1004,10.039000,1004,42.421875,-3.469116,224.578125,7.806885,4.918945,-4.590820,-0.021903,0.034762,0.000000,-3.192116
1005,10.050000,1005,42.500000,-2.713379,225.953125,7.764648,4.901367,-4.360352,-0.021692,0.034364,0.000000,-2.958741
1006,10.060000,1006,43.892578,-2.730103,226.984375,7.582275,4.866699,-4.366455,-0.021441,0.033404,0.000000,-2.958785
1007,10.070000,1007,43.857422,-3.859741,229.164062,7.539551,4.865234,-4.595459,-0.021230,0.032900,0.000000,-3.234483
1008,10.080000,1008,44.986328,-4.313477,232.500000,7.501465,4.945801,-4.311035,-0.021272,0.032264,0.000000,-2.951337
1009,10.089000,1009,45.511719,-4.817139,235.312500,7.419922,4.961914,-4.400879,-0.021086,0.031532,0.000000,-3.067370
1010,10.099000,1010,45.656250,-4.669434,238.632812,7.459229,5.042236,-3.769897,-0.021130,0.031258,0.000000,-2.441430
1011,10.109000,1011,46.529297,-5.534424,242.093750,7.456543,4.971191,-3.891357,-0.020534,0.030800,0.000000,-2.571889
1012,10.119000,1012,47.449219,-4.924072,244.632812,7.391113,5.144287,-3.888062,-0.021029,0.030213,0.000000,-2.558020
1013,10.130000,1013,48.105469,-4.891113,248.976562,7.386230,5.239014,-3.936768,-0.021042,0.029666,0.000000,-2.612573
1014,10.140000,1014,48.966797,-6.224365,252.203125,7.348877,5.214355,-3.673462,-0.020675,0.029139,0.000000,-2.375322
1015,10.150000,1015,49.111328,-6.687988,253.859375,7.198486,5.194824,-4.127441,-0.020463,0.028356,0.000000,-2.871690
1016,10.160000,1016,50.011719,-7.956787,255.531250,7.067627,5.192627,-3.848022,-0.020321,0.027659,0.000000,-2.626460
1017,10.169000,1017,51.300781,-7.636475,256.421875,6.899658,5.156982,-3.683838,-0.020111,0.026907,0.000000,-2.457045
1018,10.179000,1018,52.732422,-8.388184,258.078125,6.801758,5.194336,-4.032227,-0.020127,0.026355,0.000000,-2.811270
1019,10.189000,1019,53.207031,-8.579590,260.000000,6.782959,5.137451,-4.021484,-0.019759,0.026088,0.000000,-2.802931
1020,10.199000,1020,53.013672,-8.073730,260.625000,6.701904,5.134766,-4.156982,-0.019702,0.025715,0.000000,-2.952816
1021,10.210000,1021,52.744141,-9.057129,261.281250,6.656006,5.149414,-3.641479,-0.019708,0.025474,0.000000,-2.476350
1022,10.220000,1022,52.875000,-8.071289,260.625000,6.565186,5.059326,-4.104980,-0.019412,0.025190,0.000000,-2.929733
1023,10.230000,1023,52.431641,-7.730957,261.375000,6.463867,5.121094,-3.629639,-0.019593,0.024730,0.000000,-2.484463
1024,10.240000,1024,52.855469,-8.967285,261.781250,6.380127,5.033691,-4.062500,-0.019229,0.024372,0.000000,-2.946736
1025,10.250000,1025,53.218750,-7.732666,263.046875,6.303467,5.072510,-3.790894,-0.019284,0.023963,0.000000,-2.664712
