Format Version,1.0,
Take Name,Subject_01_trial,
Capture Frame Rate,100.00,
Export Frame Rate,100.00,
Capture Start Time,07 Feb 2020 17:30:04 +0900,
Total Frames In Take,30272,
Total Exported Frames,30272,
Coordinate Space,Local,
Device Name,AMTI 3194 3194,
Device Type,2,
Device Channel Count,6,
Mocap Rate,100.00,
Mocap Rate Multiple,1.00,

PlateLength,19.750000,
PlateWidth,19.750000,
PlateOrder,1,
PosX_PosY_X,0.501692,
PosX_PosY_Y,-0.000067,
PosX_PosY_Z,0.500841,
NegX_PosY_X,-0.000059,
NegX_PosY_Y,-0.000028,
NegX_PosY_Z,0.501540,
NegX_NegY_X,-0.000048,
NegX_NegY_Y,0.000003,
NegX_NegY_Z,0.000010,
PosX_NegY_X,0.501703,
PosX_NegY_Y,-0.000036,
PosX_NegY_Z,-0.000689,
Offset_X,0.000000,
Offset_Y,0.000000,
Offset_Z,0.000000


MocapFrame, MocapTime, DeviceFrame, Fx, Fy, Fz, Mx, My, Mz, Cx, Cy, Cz, Tz
0,0.000000,0,0.000000,0.000000,0.000000,0.000000,0.000000,0.000000,0.000000,0.000000,0.000000,0.000000
1,0.010000,1,0.000000,0.000000,0.000000,0.000000,0.000000,0.000000,0.000000,0.000000,0.000000,0.000000
2,0.020000,2,0.000000,0.000000,0.000000,0.000000,0.000000,0.000000,0.000000,0.000000,0.000000,0.000000
3,0.030000,3,0.000000,0.000000,0.000000,0.000000,0.000000,0.000000,0.000000,0.000000,0.000000,0.000000
4,0.040000,4,0.000000,0.000000,0.000000,0.000000,0.000000,0.000000,0.000000,0.000000,0.000000,0.000000
5,0.050000,5,-1.763977,16.293945,-66.875000,-0.388626,2.676270,-6.335693,0.040019,0.005811,0.000000,-6.998012
6,0.060000,6,-1.731934,16.264648,-67.144531,-0.434570,2.530762,-6.144043,0.037691,0.006472,0.000000,-6.768288
7,0.070000,7,-1.757996,15.988770,-67.273438,-0.356934,2.529297,-6.126709,0.037597,0.005306,0.000000,-6.737170
8,0.080000,8,-0.932159,15.201660,-67.265625,-0.431824,2.578247,-6.476562,0.038329,0.006420,0.000000,-7.065217
9,0.090000,9,-1.457336,16.604492,-67.144531,-0.392563,2.588745,-6.441162,0.038555,0.005847,0.000000,-7.089866
10,0.100000,10,-1.789062,15.957031,-66.875000,-0.381744,2.577515,-6.038330,0.038542,0.005708,0.000000,-6.663563
11,0.110000,11,-1.674072,16.509766,-67.144531,-0.391693,2.581909,-6.178955,0.038453,0.005834,0.000000,-6.823571
12,0.120000,12,-1.567017,15.776367,-67.136719,-0.328217,2.632446,-5.986572,0.039210,0.004889,0.000000,-6.612828
13,0.130000,13,-1.358765,16.329102,-67.007812,-0.410706,2.616089,-6.301025,0.039042,0.006129,0.000000,-6.946867
14,0.140000,14,-1.256775,15.872070,-67.003906,-0.352997,2.593994,-6.126221,0.038714,0.005268,0.000000,-6.747314
15,0.150000,15,-1.078674,16.394531,-67.406250,-0.385345,2.551147,-6.267334,0.037847,0.005717,0.000000,-6.893990
16,0.160000,16,-1.203186,16.362305,-67.136719,-0.386292,2.596436,-6.021729,0.038674,0.005754,0.000000,-6.661445
17,0.170000,17,-2.531006,15.581543,-67.011719,-0.353302,2.529053,-6.371094,0.037740,0.005272,0.000000,-6.972493
18,0.180000,18,-1.818542,15.864746,-66.875000,-0.379990,2.625244,-6.178467,0.039256,0.005682,0.000000,-6.811586
19,0.190000,19,-2.544434,16.316406,-67.148438,-0.439667,2.602905,-6.249023,0.038763,0.006548,0.000000,-6.898164
20,0.200000,20,-1.906860,15.588379,-67.140625,-0.373688,2.524170,-6.056641,0.037595,0.005566,0.000000,-6.653303
21,0.210000,21,-2.110718,14.790039,-67.136719,-0.358109,2.516235,-6.249023,0.037479,0.005334,0.000000,-6.814602
22,0.220000,22,-1.843689,15.559082,-67.406250,-0.371780,2.574463,-6.477051,0.038193,0.005516,0.000000,-7.081471
23,0.230000,23,-1.881958,15.925781,-67.007812,-0.404922,2.525635,-6.406006,0.037692,0.006043,0.000000,-7.017647
24,0.240000,24,-2.063232,15.586426,-66.875000,-0.375397,2.519531,-6.300781,0.037675,0.005613,0.000000,-6.899585
25,0.250000,25,-1.039551,15.935547,-66.867188,-0.377563,2.601074,-6.196045,0.038899,0.005646,0.000000,-6.821794
26,0.260000,26,-1.665222,16.020508,-67.007812,-0.405807,2.654419,-6.196289,0.039614,0.006056,0.000000,-6.841003
27,0.270000,27,-1.207092,16.576172,-67.140625,-0.438461,2.620972,-6.388916,0.039037,0.006530,0.000000,-7.043884
28,0.280000,28,-1.447876,16.083984,-67.007812,-0.453735,2.563965,-5.933838,0.038264,0.006771,0.000000,-6.559074
29,0.290000,29,-1.530762,15.500977,-67.136719,-0.322327,2.486938,-6.073975,0.037043,0.004801,0.000000,-6.655525
30,0.300000,30,-1.806580,15.222656,-67.136719,-0.365585,2.477783,-6.144043,0.036907,0.005445,0.000000,-6.715696
31,0.310000,31,-1.992981,15.189941,-67.406250,-0.364838,2.593506,-6.004883,0.038476,0.005413,0.000000,-6.600114
32,0.320000,32,-2.074951,16.229492,-66.878906,-0.341141,2.520264,-6.125977,0.037684,0.005101,0.000000,-6.748152
33,0.330000,33,-0.819214,15.846191,-67.132812,-0.325943,2.558716,-6.091553,0.038114,0.004855,0.000000,-6.699495
34,0.340000,34,-0.658142,15.572754,-67.128906,-0.367142,2.514404,-6.668457,0.037456,0.005469,0.000000,-7.255355
35,0.350000,35,-1.198486,16.118164,-67.406250,-0.380203,2.595703,-6.407227,0.038508,0.005640,0.000000,-7.034670
36,0.360000,36,-1.381348,15.870117,-67.269531,-0.352615,2.492188,-6.214355,0.037048,0.005242,0.000000,-6.809549
37,0.370000,37,-1.379761,15.778320,-67.136719,-0.375015,2.443481,-6.301270,0.036396,0.005586,0.000000,-6.883238
38,0.380000,38,-1.881958,15.925781,-67.007812,-0.404922,2.550049,-6.336182,0.038056,0.006043,0.000000,-6.953626
39,0.390000,39,-1.880310,15.864746,-67.542969,-0.401672,2.549316,-6.337402,0.037744,0.005947,0.000000,-6.947377
40,0.400000,40,-1.386414,16.114258,-66.605469,-0.384003,2.542114,-6.229980,0.038167,0.005765,0.000000,-6.853003
41,0.410000,41,-1.732788,16.294922,-66.875000,-0.340805,2.555542,-6.388184,0.038214,0.005096,0.000000,-7.019703
42,0.420000,42,-1.232239,16.239258,-67.007812,-0.312820,2.619751,-6.476074,0.039096,0.004668,0.000000,-7.116720
43,0.430000,43,-1.011902,16.150391,-67.269531,-0.451965,2.577393,-6.633789,0.038314,0.006719,0.000000,-7.259380
44,0.440000,44,-1.004028,15.690430,-66.730469,-0.348969,2.577515,-6.615234,0.038626,0.005230,0.000000,-7.226540
45,0.450000,45,-1.270081,16.606445,-67.140625,-0.344009,2.497192,-6.598633,0.037193,0.005124,0.000000,-7.222791
46,0.460000,46,-1.131958,15.873047,-67.000000,-0.400070,2.573486,-6.720703,0.038410,0.005971,0.000000,-7.337150
47,0.470000,47,-1.574707,16.173828,-66.738281,-0.361847,2.609131,-6.965088,0.039095,0.005422,0.000000,-7.605941
48,0.480000,48,-0.915894,15.998047,-66.867188,-0.378265,2.531982,-6.685547,0.037866,0.005657,0.000000,-7.296508
49,0.490000,49,-1.382446,15.931641,-67.273438,-0.353867,2.541016,-6.529053,0.037771,0.005260,0.000000,-7.138086
50,0.500000,50,-1.822083,16.080078,-67.277344,-0.311462,2.552002,-6.336670,0.037933,0.004630,0.000000,-6.955064
51,0.510000,51,-1.434082,17.033203,-67.011719,-0.378036,2.590576,-6.021240,0.038659,0.005641,0.000000,-6.687809
52,0.520000,52,-1.420593,16.298828,-67.007812,-0.362686,2.467773,-6.406006,0.036828,0.005413,0.000000,-7.013950
53,0.530000,53,-1.768982,16.570312,-67.011719,-0.465454,2.554810,-6.196289,0.038125,0.006946,0.000000,-6.840316
54,0.540000,54,-1.715881,17.091797,-67.148438,-0.356323,2.557251,-6.301270,0.038084,0.005307,0.000000,-6.961291
55,0.550000,55,-1.940857,17.425781,-66.750000,-0.437393,2.551147,-6.248047,0.038219,0.006553,0.000000,-6.926768
56,0.560000,56,-1.181213,16.852539,-66.875000,-0.349670,2.403198,-6.265869,0.035936,0.005229,0.000000,-6.877653
57,0.570000,57,-1.739136,16.662109,-67.281250,-0.370865,2.506836,-6.424072,0.037259,0.005512,0.000000,-7.054473
58,0.580000,58,-1.745422,16.999023,-67.148438,-0.354538,2.580566,-5.951660,0.038431,0.005280,0.000000,-6.614161
59,0.590000,59,-0.551941,16.583984,-67.000000,-0.411987,2.593018,-6.336182,0.038702,0.006149,0.000000,-6.981405
60,0.600000,60,-2.028687,17.118164,-67.015625,-0.382751,2.450073,-6.056396,0.036560,0.005711,0.000000,-6.693819
61,0.610000,61,-1.181641,16.882812,-67.007812,-0.278275,2.573853,-5.898926,0.038411,0.004153,0.000000,-6.552322
62,0.620000,62,-1.614014,16.632812,-67.011719,-0.418304,2.584229,-6.248779,0.038564,0.006242,0.000000,-6.900280
63,0.630000,63,-0.836212,16.795898,-67.542969,-0.415848,2.583862,-6.005127,0.038255,0.006157,0.000000,-6.652804
64,0.640000,64,-0.959717,16.702148,-67.140625,-0.439804,2.555786,-6.318848,0.038066,0.006550,0.000000,-6.960921
65,0.650000,65,-2.149292,16.871094,-66.613281,-0.355865,2.519531,-6.107910,0.037823,0.005342,0.000000,-6.757512
66,0.660000,66,-1.473022,17.461914,-67.148438,-0.362793,2.589966,-6.003906,0.038571,0.005403,0.000000,-6.685384
67,0.670000,67,-1.811157,17.181641,-67.148438,-0.358658,2.554443,-6.266357,0.038042,0.005341,0.000000,-6.929651
68,0.680000,68,-1.341248,17.064453,-66.742188,-0.379211,2.569336,-6.073242,0.038496,0.005682,0.000000,-6.737783
69,0.690000,69,-0.722534,17.378906,-67.007812,-0.381699,2.589111,-6.126221,0.038639,0.005696,0.000000,-6.801839
70,0.700000,70,-1.249390,17.189453,-67.281250,-0.474747,2.620728,-5.969482,0.038952,0.007056,0.000000,-6.647859
71,0.710000,71,-1.138855,16.271484,-67.406250,-0.335403,2.451782,-5.760254,0.036373,0.004976,0.000000,-6.357767
72,0.720000,72,-1.467224,17.155273,-67.281250,-0.427444,2.565063,-6.179199,0.038124,0.006353,0.000000,-6.842556
73,0.730000,73,-0.840057,16.979492,-67.007812,-0.421631,2.633545,-6.196289,0.039302,0.006292,0.000000,-6.868904
74,0.740000,74,-1.187134,17.189453,-67.144531,-0.451080,2.573975,-6.581055,0.038335,0.006718,0.000000,-7.247984
75,0.750000,75,-1.454468,16.451172,-67.144531,-0.341690,2.564209,-6.336426,0.038189,0.005089,0.000000,-6.972087
76,0.760000,76,-1.108459,16.302734,-67.136719,-0.384583,2.501709,-6.161621,0.037263,0.005728,0.000000,-6.775458
77,0.770000,77,-0.904694,17.100586,-67.007812,-0.424500,2.583008,-6.353516,0.038548,0.006335,0.000000,-7.018438
78,0.780000,78,-2.120972,17.055664,-67.152344,-0.405273,2.617554,-6.161621,0.038979,0.006035,0.000000,-6.839240
79,0.790000,79,-1.350830,17.616211,-67.281250,-0.436462,2.569458,-6.056885,0.038190,0.006487,0.000000,-6.738407
80,0.800000,80,-2.791748,17.906250,-67.429688,-0.425323,2.573364,-6.092285,0.038164,0.006308,0.000000,-6.793263
81,0.810000,81,-1.892090,16.476562,-67.011719,-0.416428,2.550781,-5.881592,0.038065,0.006214,0.000000,-6.520525
82,0.820000,82,-1.906616,17.272461,-67.015625,-0.433044,2.576172,-6.003906,0.038441,0.006462,0.000000,-6.680203
83,0.830000,83,-1.865906,16.752930,-67.011719,-0.374344,2.576416,-6.196289,0.038447,0.005586,0.000000,-6.850816
84,0.840000,84,-1.555298,16.848633,-67.281250,-0.421478,2.513062,-6.161865,0.037352,0.006264,0.000000,-6.800931
85,0.850000,85,-2.685303,17.203125,-67.425781,-0.314789,2.599731,-5.987549,0.038557,0.004669,0.000000,-6.663385
86,0.860000,86,-2.548950,16.560547,-67.152344,-0.397110,2.457031,-6.126465,0.036589,0.005914,0.000000,-6.747470
87,0.870000,87,-1.535522,17.460938,-67.015625,-0.530487,2.515015,-6.056396,0.037529,0.007916,0.000000,-6.723839
88,0.880000,88,-1.333557,16.635742,-66.605469,-0.346893,2.593384,-5.932861,0.038936,0.005208,0.000000,-6.587544
89,0.890000,89,-2.293579,17.941406,-66.757812,-0.497589,2.541016,-6.073242,0.038063,0.007454,0.000000,-6.773245
90,0.900000,90,-2.498169,17.205078,-67.152344,-0.457947,2.557129,-6.109131,0.038080,0.006820,0.000000,-6.781328
91,0.910000,91,-1.759644,17.764648,-66.882812,-0.514587,2.532959,-5.951172,0.037872,0.007694,0.000000,-6.637486
92,0.920000,92,-1.788513,17.641602,-67.015625,-0.392441,2.507446,-5.898926,0.037416,0.005856,0.000000,-6.569475
93,0.930000,93,-1.477905,17.737305,-67.285156,-0.391891,2.468262,-5.812256,0.036684,0.005824,0.000000,-6.471532
94,0.940000,94,-1.341125,17.064453,-66.875000,-0.402588,2.593628,-5.758789,0.038783,0.006020,0.000000,-6.428678
95,0.950000,95,-0.483246,16.248047,-67.132812,-0.380341,2.545532,-6.021729,0.037918,0.005665,0.000000,-6.640558
96,0.960000,96,-0.336884,16.770508,-67.000000,-0.462479,2.600220,-6.266113,0.038809,0.006903,0.000000,-6.919290
97,0.970000,97,-1.008118,17.651367,-67.281250,-0.387802,2.629028,-6.319092,0.039075,0.005764,0.000000,-7.014633
98,0.980000,98,-0.340805,16.985352,-67.000000,-0.371582,2.600342,-6.143799,0.038811,0.005546,0.000000,-6.804909
99,0.990000,99,-0.684479,17.011719,-67.136719,-0.397202,2.638184,-5.986572,0.039296,0.005916,0.000000,-6.659109
100,1.000000,100,-0.894531,16.549805,-67.136719,-0.388657,2.557617,-5.934082,0.038096,0.005789,0.000000,-6.569736
101,1.010000,101,-0.437073,17.136719,-67.136719,-0.398590,2.694946,-6.109131,0.040141,0.005937,0.000000,-6.799614
102,1.020000,102,-0.912140,17.499023,-66.875000,-0.409454,2.608032,-5.793701,0.038999,0.006123,0.000000,-6.481723
103,1.030000,103,-0.408249,17.259766,-67.003906,-0.425339,2.574463,-5.793945,0.038423,0.006348,0.000000,-6.459702
104,1.040000,104,-0.786865,17.469727,-66.742188,-0.337189,2.538696,-6.073242,0.038037,0.005052,0.000000,-6.741720
105,1.050000,105,-1.264221,18.015625,-67.554688,-0.395660,2.621460,-5.952881,0.038805,0.005857,0.000000,-6.659381
106,1.060000,106,-1.002136,17.314453,-67.144531,-0.452789,2.555542,-5.706787,0.038060,0.006744,0.000000,-6.372539
107,1.070000,107,-0.127846,17.292969,-67.136719,-0.400314,2.680664,-6.144043,0.039928,0.005963,0.000000,-6.835287
108,1.080000,108,-0.391312,16.340820,-67.132812,-0.381805,2.572998,-5.759277,0.038327,0.005687,0.000000,-6.387797
109,1.090000,109,-0.187454,17.139648,-67.136719,-0.349716,2.678345,-5.986572,0.039894,0.005209,0.000000,-6.671316
110,1.100000,110,-1.218689,17.251953,-67.949219,-0.306534,2.596680,-6.006104,0.038215,0.004511,0.000000,-6.670885
111,1.110000,111,-1.013306,16.210938,-67.003906,-0.358841,2.626709,-5.846436,0.039202,0.005356,0.000000,-6.487369
112,1.120000,112,-1.095032,17.282227,-67.277344,-0.380554,2.479614,-5.899414,0.036857,0.005656,0.000000,-6.542572
113,1.129000,113,-1.114990,16.638672,-66.738281,-0.321518,2.575684,-5.811035,0.038594,0.004818,0.000000,-6.458556
114,1.139000,114,-1.831360,16.569336,-67.011719,-0.370377,2.406616,-5.898926,0.035913,0.005527,0.000000,-6.504108
115,1.149000,115,-0.906830,17.223633,-67.144531,-0.355042,2.607178,-6.021729,0.038829,0.005288,0.000000,-6.695306
116,1.159000,116,-0.517700,16.431641,-67.269531,-0.359985,2.690918,-5.986816,0.040002,0.005351,0.000000,-6.646886
117,1.169000,117,-0.648224,16.736328,-67.136719,-0.295944,2.614502,-5.969238,0.038943,0.004408,0.000000,-6.623857
118,1.179000,118,-0.932800,16.916016,-66.738281,-0.374100,2.630615,-5.828369,0.039417,0.005605,0.000000,-6.500375
119,1.189000,119,-0.769714,16.550781,-67.136719,-0.292709,2.561401,-6.196533,0.038152,0.004360,0.000000,-6.831335
120,1.199000,120,-1.617554,16.816406,-66.878906,-0.446457,2.584473,-6.073486,0.038644,0.006676,0.000000,-6.734138
121,1.209000,121,-1.579773,16.480469,-67.277344,-0.413971,2.560181,-6.266602,0.038054,0.006153,0.000000,-6.903472
122,1.219000,122,-1.311707,17.188477,-67.414062,-0.403046,2.545410,-6.214844,0.037758,0.005979,0.000000,-6.871686
123,1.229000,123,-1.393860,16.543945,-67.007812,-0.415344,2.566528,-6.161133,0.038302,0.006198,0.000000,-6.803438
124,1.240000,124,-1.389343,16.298828,-67.140625,-0.338196,2.468506,-6.301270,0.036766,0.005037,0.000000,-6.907514
125,1.250000,125,-0.531586,17.197266,-67.406250,-0.399338,2.569946,-6.092285,0.038126,0.005924,0.000000,-6.751101
126,1.260000,126,-1.320435,17.646484,-67.015625,-0.390244,2.497925,-5.986328,0.037274,0.005823,0.000000,-6.651768
127,1.270000,127,-0.642975,18.176758,-67.550781,-0.348236,2.592407,-5.952881,0.038377,0.005155,0.000000,-6.653768
128,1.280000,128,-1.165527,17.709961,-67.011719,-0.390778,2.600220,-5.723877,0.038802,0.005831,0.000000,-6.417864
129,1.290000,129,-1.447998,17.799805,-67.148438,-0.322021,2.493774,-6.091553,0.037138,0.004796,0.000000,-6.759550
130,1.300000,130,-0.940277,17.345703,-67.144531,-0.357742,2.557739,-5.864258,0.038093,0.005328,0.000000,-6.530018
131,1.310000,131,-0.792419,17.806641,-67.414062,-0.413300,2.514160,-6.302246,0.037294,0.006131,0.000000,-6.971190
132,1.320000,132,-0.660248,17.378906,-66.875000,-0.405716,2.566895,-6.755371,0.038383,0.006067,0.000000,-7.426439
133,1.330000,133,0.164917,18.337891,-66.875000,-0.373886,2.594482,-6.528076,0.038796,0.005591,0.000000,-7.238591
134,1.340000,134,-0.056845,16.803711,-66.730469,-0.367401,2.584961,-6.667725,0.038737,0.005506,0.000000,-7.318969
135,1.350000,135,-1.991150,16.782227,-67.148438,-0.351257,2.523682,-6.073975,0.037584,0.005231,0.000000,-6.715127
136,1.360000,136,-1.182068,16.882812,-66.605469,-0.398972,2.549805,-6.474854,0.038282,0.005990,0.000000,-7.128245
137,1.370000,137,-1.078918,16.394531,-67.136719,-0.338654,2.551514,-6.371338,0.038005,0.005044,0.000000,-6.999850
138,1.379000,138,-1.232727,16.270508,-67.136719,-0.384521,2.522217,-5.951660,0.037568,0.005727,0.000000,-6.569977
139,1.389000,139,-1.181213,16.852539,-66.875000,-0.349670,2.598145,-6.056152,0.038851,0.005229,0.000000,-6.717062
140,1.399000,140,-0.454422,16.371094,-67.000000,-0.407074,2.620117,-6.213623,0.039106,0.006076,0.000000,-6.856596
141,1.409000,141,-0.841309,17.040039,-66.875000,-0.447266,2.609375,-6.020996,0.039019,0.006688,0.000000,-6.691503
142,1.419000,142,-0.677765,16.643555,-67.136719,-0.389526,2.564697,-6.021729,0.038201,0.005802,0.000000,-6.661463
143,1.429000,143,-1.296143,16.331055,-67.273438,-0.361740,2.568848,-6.161865,0.038185,0.005377,0.000000,-6.792439
144,1.439000,144,-0.484512,16.309570,-67.000000,-0.358276,2.619141,-6.196289,0.039092,0.005347,0.000000,-6.836448
145,1.449000,145,-0.931458,16.855469,-67.007812,-0.419510,2.532837,-6.021240,0.037799,0.006261,0.000000,-6.664194
146,1.459000,146,-1.097534,17.404297,-67.011719,-0.384109,2.528687,-5.846436,0.037735,0.005732,0.000000,-6.509478
147,1.470000,147,-1.331787,16.543945,-66.738281,-0.463715,2.495605,-5.933350,0.037394,0.006948,0.000000,-6.561246
148,1.480000,148,-0.744080,16.858398,-67.136719,-0.346619,2.538574,-5.724365,0.037812,0.005163,0.000000,-6.365656
149,1.490000,149,0.622437,17.241211,-67.398438,-0.394516,2.655151,-5.812744,0.039395,0.005853,0.000000,-6.488316
150,1.500000,150,-0.074146,17.785156,-67.406250,-0.409256,2.634033,-5.550293,0.039077,0.006071,0.000000,-6.245733
151,1.510000,151,0.192978,16.837891,-67.535156,-0.363922,2.616333,-5.882812,0.038740,0.005389,0.000000,-6.534078
152,1.520000,152,-0.405869,17.136719,-67.136719,-0.398453,2.574097,-5.811768,0.038341,0.005935,0.000000,-6.471218
153,1.530000,153,-1.373291,17.125977,-67.011719,-0.379639,2.592651,-5.741699,0.038690,0.005665,0.000000,-6.412075
154,1.540000,154,-0.370636,16.923828,-67.269531,-0.369476,2.550293,-5.829590,0.037912,0.005492,0.000000,-6.473234
155,1.550000,155,-0.211250,16.742188,-67.269531,-0.412582,2.554932,-5.672119,0.037981,0.006133,0.000000,-6.309292
156,1.560000,156,-1.128601,17.404297,-67.144531,-0.407578,2.551880,-5.654541,0.038006,0.006070,0.000000,-6.322855
157,1.570000,157,-0.820068,17.591797,-67.011719,-0.386581,2.537842,-5.689209,0.037872,0.005769,0.000000,-6.360169
158,1.580000,158,-1.315308,17.372070,-67.148438,-0.407822,2.594604,-5.322266,0.038640,0.006073,0.000000,-6.001508
159,1.590000,159,-0.215675,16.955078,-66.730469,-0.371338,2.555664,-5.461182,0.038298,0.005565,0.000000,-6.111732
160,1.600000,160,-0.180603,16.772461,-67.269531,-0.365387,2.580444,-5.916748,0.038360,0.005432,0.000000,-6.561117
161,1.610000,161,-0.553497,16.675781,-67.136719,-0.389587,2.568604,-5.776611,0.038259,0.005803,0.000000,-6.417827
162,1.620000,162,-1.089722,16.976562,-67.007812,-0.375153,2.625610,-6.161133,0.039184,0.005599,0.000000,-6.832438
163,1.629000,163,-0.211624,16.741211,-66.867188,-0.437897,2.579712,-5.793701,0.038580,0.006549,0.000000,-6.440957
164,1.639000,164,-0.233032,17.905273,-66.738281,-0.438858,2.581421,-5.601074,0.038680,0.006576,0.000000,-6.295178
165,1.649000,165,-1.290955,17.770508,-67.550781,-0.438370,2.522583,-6.110107,0.037344,0.006489,0.000000,-6.782098
166,1.659000,166,-0.436661,17.106445,-67.003906,-0.469971,2.646362,-5.846436,0.039496,0.007014,0.000000,-6.525128
167,1.669000,167,-1.429016,16.757812,-67.011719,-0.372269,2.565796,-5.636719,0.038289,0.005555,0.000000,-6.286293
168,1.679000,168,-0.545807,17.961914,-67.144531,-0.416290,2.595581,-5.969238,0.038657,0.006200,0.000000,-6.666969
169,1.690000,169,-0.381531,17.504883,-67.007812,-0.334915,2.600220,-6.021240,0.038805,0.004998,0.000000,-6.702419
170,1.700000,170,-0.443375,17.473633,-67.007812,-0.334579,2.500488,-5.846436,0.037316,0.004993,0.000000,-6.500702
171,1.710000,171,-0.615509,18.359375,-67.148438,-0.424927,2.569824,-5.916748,0.038271,0.006328,0.000000,-6.623271
172,1.720000,172,-1.134827,17.741211,-67.148438,-0.414642,2.601074,-6.161621,0.038736,0.006175,0.000000,-6.855855
173,1.730000,173,-1.898804,16.844727,-67.015625,-0.424118,2.551270,-6.003906,0.038070,0.006329,0.000000,-6.657198
174,1.740000,174,-1.881042,17.579102,-67.019531,-0.391602,2.577393,-5.864014,0.038457,0.005843,0.000000,-6.551050
175,1.750000,175,-1.997498,17.150391,-67.554688,-0.476685,2.499268,-5.952881,0.036996,0.007056,0.000000,-6.601475
176,1.760000,176,-1.272583,16.728516,-66.875000,-0.395233,2.570801,-5.741211,0.038442,0.005910,0.000000,-6.391808
177,1.770000,177,-0.818878,17.499023,-66.472656,-0.434326,2.611328,-5.949951,0.039284,0.006534,0.000000,-6.642738
178,1.780000,178,-1.274353,16.820312,-66.742188,-0.421478,2.619751,-5.776123,0.039252,0.006315,0.000000,-6.444398
179,1.790000,179,-0.752289,17.286133,-66.738281,-0.428574,2.539551,-5.758301,0.038052,0.006422,0.000000,-6.420910
180,1.800000,180,-1.185852,17.127930,-67.277344,-0.425491,2.573853,-5.742188,0.038257,0.006324,0.000000,-6.404956
181,1.810000,181,-1.743164,16.876953,-67.148438,-0.352005,2.580322,-6.249023,0.038427,0.005242,0.000000,-6.906694
182,1.820000,182,-1.869629,16.936523,-66.613281,-0.403503,2.528320,-5.968018,0.037955,0.006057,0.000000,-6.622171
183,1.830000,183,-2.532227,17.357422,-67.156250,-0.413574,2.580811,-6.056641,0.038430,0.006158,0.000000,-6.739280
184,1.840000,184,-2.190308,17.422852,-67.019531,-0.389893,2.494385,-6.301025,0.037219,0.005818,0.000000,-6.962225
185,1.850000,185,-1.793884,17.948242,-67.289062,-0.397873,2.604980,-6.179443,0.038713,0.005913,0.000000,-6.884886
186,1.860000,186,-1.480347,17.890625,-67.687500,-0.417480,2.589966,-5.865723,0.038264,0.006168,0.000000,-6.559412
187,1.870000,187,-1.197693,17.771484,-67.148438,-0.510956,2.623413,-5.899170,0.039069,0.007609,0.000000,-6.602595
188,1.879000,188,-1.626953,17.368164,-67.550781,-0.431686,2.560059,-6.022705,0.037898,0.006391,0.000000,-6.691326
189,1.889000,189,-1.476013,17.614258,-66.882812,-0.462357,2.541748,-6.213379,0.038003,0.006913,0.000000,-6.892977
190,1.899000,190,-1.254639,17.463867,-67.011719,-0.433792,2.426392,-6.003906,0.036208,0.006473,0.000000,-6.644368
191,1.909000,191,-0.941650,19.121094,-67.019531,-0.514374,2.609619,-6.458496,0.038938,0.007675,0.000000,-7.210264
192,1.919000,192,-0.877167,17.315430,-67.277344,-0.427841,2.535156,-5.864502,0.037682,0.006359,0.000000,-6.522563
193,1.929000,193,-1.139221,17.955078,-66.613281,-0.516418,2.601929,-5.898193,0.039060,0.007752,0.000000,-6.608355
194,1.940000,194,-1.420715,18.013672,-67.152344,-0.421722,2.543823,-6.161621,0.037881,0.006280,0.000000,-6.852926
195,1.950000,195,-2.256714,17.635742,-66.886719,-0.419006,2.517212,-5.758789,0.037634,0.006264,0.000000,-6.436629
196,1.960000,196,-0.495331,16.921875,-67.406250,-0.441101,2.716919,-6.057373,0.040307,0.006544,0.000000,-6.742678
197,1.970000,197,-0.994781,16.884766,-66.605469,-0.398056,2.580078,-6.020020,0.038737,0.005976,0.000000,-6.680025
198,1.980000,198,-0.682800,16.919922,-67.136719,-0.347610,2.613770,-5.899170,0.038932,0.005178,0.000000,-6.561432
199,1.990000,199,-1.358215,16.298828,-67.007812,-0.410080,2.567139,-5.811523,0.038311,0.006120,0.000000,-6.444261
200,2.000000,200,-1.313293,17.249023,-66.878906,-0.310883,2.546265,-6.020996,0.038073,0.004648,0.000000,-6.683819
201,2.009000,201,-1.375305,17.217773,-66.742188,-0.334885,2.519897,-5.793457,0.037756,0.005018,0.000000,-6.450427
202,2.020000,202,-1.393066,16.482422,-66.738281,-0.319672,2.615356,-5.898438,0.039188,0.004790,0.000000,-6.551028
203,2.029000,203,-1.209473,16.699219,-67.007812,-0.417664,2.621338,-6.248779,0.039120,0.006233,0.000000,-6.909590
204,2.040000,204,-0.643890,16.491211,-67.000000,-0.362839,2.589966,-6.108887,0.038656,0.005416,0.000000,-6.749861
205,2.049000,205,-1.089844,16.975586,-66.875000,-0.351791,2.552612,-5.933594,0.038170,0.005260,0.000000,-6.587283
206,2.060000,206,-1.735901,16.478516,-67.144531,-0.391357,2.531128,-6.144043,0.037697,0.005829,0.000000,-6.775347
207,2.069000,207,-1.737915,16.570312,-66.742188,-0.418579,2.458618,-6.143311,0.036838,0.006272,0.000000,-6.764620
208,2.080000,208,-1.201843,16.301758,-67.406250,-0.240974,2.522827,-5.969971,0.037427,0.003575,0.000000,-6.584396
209,2.089000,209,-0.876862,17.285156,-67.007812,-0.428192,2.632935,-5.916504,0.039293,0.006390,0.000000,-6.601292
210,2.100000,210,-1.367859,16.819336,-66.875000,-0.349899,2.543701,-5.846191,0.038037,0.005232,0.000000,-6.493100
211,2.109000,211,-0.936035,15.384766,-66.730469,-0.342255,2.579102,-6.178223,0.038650,0.005129,0.000000,-6.777637
212,2.120000,212,-1.344421,17.249023,-67.011719,-0.382095,2.618164,-5.986328,0.039070,0.005702,0.000000,-6.667917
213,2.129000,213,-1.580017,16.480469,-67.007812,-0.414963,2.560547,-5.881592,0.038213,0.006193,0.000000,-6.521139
214,2.140000,214,-1.424011,16.482422,-67.007812,-0.414215,2.565430,-5.933838,0.038286,0.006182,0.000000,-6.573679
215,2.149000,215,-1.171875,16.362305,-67.273438,-0.361816,2.597290,-5.916748,0.038608,0.005378,0.000000,-6.554766
216,2.160000,216,-1.229736,16.085938,-66.738281,-0.310608,2.595337,-5.740967,0.038888,0.004654,0.000000,-6.372245
217,2.169000,217,-1.242554,16.821289,-67.410156,-0.442719,2.644409,-5.847656,0.039229,0.006568,0.000000,-6.515693
218,2.180000,218,-1.582825,16.633789,-67.011719,-0.418152,2.585205,-6.161133,0.038578,0.006240,0.000000,-6.812715
219,2.189000,219,-1.799133,16.507812,-66.878906,-0.393250,2.529419,-6.335693,0.037821,0.005880,0.000000,-6.970613
220,2.200000,220,-1.783813,17.397461,-67.285156,-0.434052,2.555542,-6.179443,0.037981,0.006451,0.000000,-6.851719
221,2.209000,221,-2.010010,17.823242,-67.289062,-0.444046,2.598022,-6.039551,0.038610,0.006599,0.000000,-6.740968
222,2.220000,222,-2.285645,17.576172,-68.226562,-0.412979,2.563354,-6.094238,0.037571,0.006053,0.000000,-6.768431
223,2.229000,223,-1.019836,16.672852,-69.015625,-0.384964,2.356934,-6.288574,0.034151,0.005578,0.000000,-6.863653
224,2.240000,224,-0.912231,17.435547,-65.535156,-0.460754,2.414429,-5.982910,0.036842,0.007031,0.000000,-6.631680
225,2.250000,225,-1.380554,17.493164,-66.476562,-0.293930,2.666748,-6.107178,0.040116,0.004422,0.000000,-6.815031
226,2.259000,226,-0.800812,18.266602,-67.417969,-0.422882,2.612183,-5.987549,0.038746,0.006273,0.000000,-6.700331
227,2.270000,227,-1.041931,17.741211,-66.339844,-0.417130,2.653809,-6.054443,0.040003,0.006288,0.000000,-6.770700
228,2.279000,228,-1.883728,17.764648,-67.691406,-0.369171,2.528198,-6.057861,0.037349,0.005454,0.000000,-6.731625
229,2.290000,229,-2.575073,17.968750,-66.757812,-0.404175,2.580933,-6.195557,0.038661,0.006054,0.000000,-6.905839
230,2.299000,230,-2.399292,16.899414,-66.882812,-0.404373,2.535645,-6.073486,0.037912,0.006046,0.000000,-6.728679
231,2.310000,231,-1.680237,16.846680,-67.148438,-0.398727,2.533569,-5.969238,0.037731,0.005938,0.000000,-6.614856
232,2.319000,232,-1.117920,16.791992,-66.605469,-0.444458,2.576172,-5.897949,0.038678,0.006673,0.000000,-6.554891
233,2.330000,233,-1.652222,17.000000,-66.746094,-0.427094,2.535034,-5.706055,0.037980,0.006399,0.000000,-6.362291
234,2.339000,234,-2.381592,17.666016,-67.425781,-0.418289,2.561279,-6.249512,0.037987,0.006204,0.000000,-6.935359
235,2.350000,235,-2.209229,16.779297,-67.550781,-0.422333,2.491943,-6.145020,0.036890,0.006252,0.000000,-6.777819
236,2.359000,236,-0.680298,16.797852,-67.406250,-0.344070,2.564697,-6.144775,0.038048,0.005104,0.000000,-6.787378
237,2.370000,237,-2.306519,16.930664,-66.613281,-0.453262,2.661011,-6.055420,0.039947,0.006804,0.000000,-6.747446
238,2.379000,238,-1.274841,16.851562,-66.875000,-0.350098,2.619751,-6.003662,0.039174,0.005235,0.000000,-6.670476
239,2.390000,239,-1.705750,16.508789,-66.609375,-0.393799,2.557129,-6.229980,0.038390,0.005912,0.000000,-6.873836
240,2.399000,240,-0.835480,16.734375,-67.136719,-0.296799,2.511108,-6.039062,0.037403,0.004421,0.000000,-6.668670
241,2.410000,241,-1.854492,16.140625,-67.277344,-0.360565,2.429077,-6.319092,0.036105,0.005359,0.000000,-6.911795
242,2.419000,242,-1.892395,16.476562,-66.609375,-0.394043,2.575562,-6.160156,0.038667,0.005916,0.000000,-6.808444
243,2.430000,243,-1.330505,16.483398,-66.875000,-0.295044,2.592896,-6.020996,0.038772,0.004412,0.000000,-6.665965
244,2.439000,244,-1.023682,16.792969,-67.273438,-0.322342,2.675781,-5.882080,0.039775,0.004792,0.000000,-6.554921
245,2.450000,245,-1.264709,16.299805,-66.871094,-0.433960,2.594482,-6.003662,0.038798,0.006489,0.000000,-6.644274
246,2.459000,246,-0.933014,16.947266,-67.140625,-0.301758,2.581543,-5.899170,0.038450,0.004494,0.000000,-6.554982
247,2.470000,247,-0.245506,16.893555,-67.000000,-0.321518,2.603271,-5.759033,0.038855,0.004799,0.000000,-6.416607
248,2.480000,248,-1.126404,17.282227,-67.144531,-0.405045,2.624878,-5.864258,0.039093,0.006032,0.000000,-6.546666
249,2.490000,249,-1.691589,17.458984,-67.015625,-0.483551,2.705078,-5.759033,0.040365,0.007215,0.000000,-6.475969
250,2.500000,250,-1.870605,16.997070,-66.746094,-0.380447,2.552612,-6.038330,0.038244,0.005700,0.000000,-6.699022
251,2.509000,251,-1.506836,17.583008,-66.746094,-0.438522,2.565063,-6.143311,0.038430,0.006570,0.000000,-6.828928
252,2.520000,252,-1.218262,17.189453,-67.144531,-0.355865,2.621826,-6.073975,0.039048,0.005300,0.000000,-6.751637
253,2.529000,253,-1.717163,17.152344,-67.015625,-0.429611,2.533203,-6.073730,0.037800,0.006411,0.000000,-6.733100
254,2.540000,254,-1.960876,16.843750,-67.281250,-0.328049,2.597656,-6.091797,0.038609,0.004876,0.000000,-6.751677
255,2.549000,255,-1.767944,16.508789,-66.875000,-0.393127,2.603638,-5.933594,0.038933,0.005879,0.000000,-6.586722
256,2.560000,256,-1.521729,16.695312,-66.742188,-0.372406,2.636108,-5.811035,0.039497,0.005580,0.000000,-6.478939
257,2.569000,257,-0.242271,16.709961,-66.867188,-0.437393,2.578735,-6.125977,0.038565,0.006541,0.000000,-6.771981
258,2.580000,258,-0.896759,16.671875,-67.136719,-0.248146,2.582153,-5.741943,0.038461,0.003696,0.000000,-6.386477
259,2.589000,259,-1.021606,16.670898,-67.140625,-0.391785,2.553955,-5.776611,0.038039,0.005835,0.000000,-6.416715
260,2.600000,260,-1.177429,16.637695,-66.738281,-0.417206,2.671265,-5.671143,0.040026,0.006251,0.000000,-6.344443
261,2.609000,261,-1.249939,17.188477,-66.742188,-0.333649,2.572632,-5.706055,0.038546,0.004999,0.000000,-6.374847
262,2.620000,262,-1.362122,16.482422,-66.472656,-0.368195,2.616699,-5.897705,0.039365,0.005539,0.000000,-6.554081
263,2.629000,263,-1.389099,16.267578,-66.738281,-0.362869,2.590820,-5.793457,0.038821,0.005437,0.000000,-6.432527
264,2.640000,264,-1.039551,15.935547,-66.867188,-0.329880,2.601074,-5.811279,0.038899,0.004933,0.000000,-6.436286
265,2.649000,265,-1.526245,16.939453,-66.742188,-0.329865,2.563354,-5.793457,0.038407,0.004942,0.000000,-6.451591
266,2.660000,266,-0.436890,17.105469,-66.738281,-0.375565,2.549072,-5.880859,0.038195,0.005627,0.000000,-6.536662
267,2.669000,267,-0.498505,17.074219,-67.003906,-0.374252,2.620117,-5.881592,0.039104,0.005586,0.000000,-6.552045
268,2.680000,268,-0.997681,17.038086,-66.472656,-0.330261,2.531616,-5.810059,0.038085,0.004968,0.000000,-6.463912
269,2.690000,269,-1.630310,17.520508,-67.015625,-0.389160,2.609497,-5.811523,0.038939,0.005807,0.000000,-6.503215
270,2.700000,270,-1.753601,17.427734,-66.746094,-0.388824,2.605835,-6.090820,0.039041,0.005825,0.000000,-6.781432
271,2.710000,271,-1.680420,16.846680,-66.878906,-0.399704,2.582520,-5.933594,0.038615,0.005977,0.000000,-6.594169
272,2.720000,272,-1.432068,16.910156,-66.742188,-0.376450,2.541748,-5.758301,0.038083,0.005640,0.000000,-6.410369
273,2.730000,273,-1.183899,17.005859,-67.007812,-0.423889,2.476440,-5.793945,0.036957,0.006326,0.000000,-6.429928
274,2.740000,274,-1.438110,17.247070,-66.878906,-0.454529,2.493530,-5.916260,0.037284,0.006796,0.000000,-6.569077
275,2.750000,275,-0.849152,17.468750,-66.875000,-0.360855,2.609863,-5.828857,0.039026,0.005396,0.000000,-6.515174
276,2.759000,276,0.352982,16.594727,-66.996094,-0.360031,2.572754,-5.864014,0.038402,0.005374,0.000000,-6.499380
277,2.770000,277,-0.341110,17.015625,-67.269531,-0.371262,2.648804,-5.619629,0.039376,0.005519,0.000000,-6.291518
278,2.779000,278,0.306335,17.452148,-67.269531,-0.424774,2.621338,-5.847168,0.038968,0.006315,0.000000,-6.525303
279,2.790000,279,-0.541656,17.748047,-67.410156,-0.363174,2.643799,-6.372070,0.039220,0.005388,0.000000,-7.071060
280,2.799000,280,-0.346512,17.291016,-66.871094,-0.402328,2.552246,-5.758789,0.038167,0.006016,0.000000,-6.420814
281,2.810000,281,-0.337006,16.769531,-66.867188,-0.391418,2.527222,-5.933594,0.037795,0.005854,0.000000,-6.569365
282,2.819000,282,-0.275467,16.832031,-67.136719,-0.391464,2.577637,-5.951660,0.038394,0.005831,0.000000,-6.599513
283,2.830000,283,-0.927521,16.641602,-67.007812,-0.415039,2.532593,-5.636719,0.037795,0.006194,0.000000,-6.271441
284,2.839000,284,-1.145447,16.638672,-67.542969,-0.414124,2.549438,-5.375732,0.037745,0.006131,0.000000,-6.010789
285,2.850000,285,-0.337738,16.832031,-67.269531,-0.415100,2.502441,-5.829590,0.037200,0.006171,0.000000,-6.457829
286,2.859000,286,-0.189377,17.231445,-66.871094,-0.352631,2.654541,-6.020996,0.039696,0.005273,0.000000,-6.706021
287,2.870000,287,0.046906,16.285156,-67.398438,-0.282089,2.635254,-6.004883,0.039100,0.004185,0.000000,-6.641430
288,2.879000,288,0.231209,16.440430,-67.261719,-0.404114,2.665649,-5.549561,0.039631,0.006008,0.000000,-6.199722
289,2.890000,289,-0.897217,16.703125,-67.273438,-0.319839,2.582031,-5.619629,0.038381,0.004754,0.000000,-6.264980
290,2.899000,290,-1.464844,17.033203,-67.414062,-0.400558,2.515869,-5.900146,0.037320,0.005942,0.000000,-6.544523
291,2.910000,291,-1.185425,17.097656,-67.144531,-0.449188,2.598267,-6.161621,0.038697,0.006690,0.000000,-6.831173
292,2.919000,292,-1.386841,16.176758,-67.406250,-0.382339,2.541138,-6.092285,0.037699,0.005672,0.000000,-6.709997
293,2.930000,293,-1.673279,16.480469,-67.414062,-0.437775,2.557007,-5.812744,0.037930,0.006494,0.000000,-6.448712
294,2.940000,294,-1.677002,16.663086,-67.011719,-0.419220,2.557861,-6.248779,0.038170,0.006256,0.000000,-6.895307
295,2.950000,295,-0.745911,16.949219,-67.007812,-0.325180,2.587646,-6.336182,0.038617,0.004853,0.000000,-6.994331
296,2.960000,296,-1.138550,16.240234,-67.136719,-0.335754,2.598022,-5.969238,0.038697,0.005001,0.000000,-6.603388
297,2.970000,297,-1.654846,15.437988,-66.734375,-0.346924,2.556519,-6.038330,0.038309,0.005199,0.000000,-6.638345
298,2.980000,298,-1.859131,16.384766,-67.011719,-0.318985,2.649048,-5.881592,0.039531,0.004760,0.000000,-6.538149
299,2.990000,299,-0.747986,15.356934,-66.996094,-0.339752,2.657715,-5.811523,0.039670,0.005071,0.000000,-6.424521
300,3.000000,300,-1.385254,16.084961,-67.273438,-0.357071,2.565674,-6.231689,0.038138,0.005308,0.000000,-6.852490
301,3.009000,301,-1.014160,16.273438,-67.269531,-0.359161,2.626465,-5.899414,0.039044,0.005339,0.000000,-6.540207
302,3.020000,302,-1.513672,16.266602,-67.007812,-0.362488,2.611084,-6.003906,0.038967,0.005410,0.000000,-6.645953
303,3.029000,303,-1.390442,16.360352,-67.140625,-0.387161,2.493042,-6.056641,0.037132,0.005766,0.000000,-6.672145
304,3.040000,304,-1.235168,16.392578,-66.871094,-0.435760,2.644409,-6.230957,0.039545,0.006516,0.000000,-6.887249
305,3.049000,305,-1.697021,16.050781,-67.007812,-0.454285,2.556152,-6.423584,0.038147,0.006780,0.000000,-7.047379
306,3.060000,306,-2.483765,16.376953,-66.476562,-0.419281,2.483765,-6.229736,0.037363,0.006307,0.000000,-6.857294
307,3.069000,307,-2.393188,16.562500,-66.882812,-0.445007,2.559692,-6.038330,0.038271,0.006654,0.000000,-6.688121
308,3.080000,308,-1.607422,16.265625,-66.875000,-0.387268,2.535034,-5.863770,0.037907,0.005791,0.000000,-6.489660
309,3.089000,309,-2.377563,15.705078,-66.742188,-0.356094,2.583008,-6.353027,0.038701,0.005335,0.000000,-6.973519
310,3.100000,310,-2.543579,16.254883,-66.878906,-0.439377,2.554321,-5.968506,0.038193,0.006570,0.000000,-6.606043
311,3.109000,311,-1.572021,16.051758,-67.140625,-0.333969,2.559937,-5.899170,0.038128,0.004974,0.000000,-6.519011
312,3.120000,312,-0.652435,15.266602,-67.261719,-0.384094,2.587158,-6.354004,0.038464,0.005710,0.000000,-6.944945
313,3.129000,313,-0.211494,16.741211,-67.000000,-0.413574,2.604004,-6.301025,0.038866,0.006173,0.000000,-6.952991
314,3.140000,314,-1.507080,15.898926,-66.871094,-0.331436,2.537476,-5.898682,0.037946,0.004956,0.000000,-6.509449
315,3.149000,315,-2.347534,15.766602,-66.742188,-0.357193,2.535278,-6.178223,0.037986,0.005352,0.000000,-6.789699
316,3.160000,316,-1.553040,16.725586,-67.277344,-0.466644,2.561523,-5.916748,0.038074,0.006936,0.000000,-6.564332
317,3.169000,317,-1.859863,16.416016,-66.878906,-0.391617,2.527466,-5.916260,0.037792,0.005856,0.000000,-6.547539
318,3.180000,318,-1.764526,16.324219,-66.875000,-0.389267,2.481445,-6.038330,0.037106,0.005821,0.000000,-6.654323
319,3.189000,319,-0.959290,16.670898,-67.007812,-0.463516,2.580444,-6.213623,0.038510,0.006917,0.000000,-6.862248
320,3.200000,320,-1.640381,16.356445,-66.742188,-0.413681,2.436768,-6.143311,0.036510,0.006198,0.000000,-6.750655
321,3.209000,321,-1.632446,15.928223,-66.871094,-0.428055,2.631226,-6.108398,0.039348,0.006401,0.000000,-6.745587
322,3.220000,322,-1.775085,16.907227,-67.011719,-0.377106,2.603882,-6.143799,0.038857,0.005627,0.000000,-6.810754
323,3.229000,323,-0.891266,16.366211,-67.003906,-0.409149,2.533325,-6.301025,0.037809,0.006106,0.000000,-6.925251
324,3.240000,324,-1.206299,16.515625,-66.871094,-0.342804,2.621216,-5.916260,0.039198,0.005126,0.000000,-6.569824
325,3.250000,325,-0.322327,15.974609,-66.996094,-0.398178,2.623535,-6.213623,0.039160,0.005943,0.000000,-6.841096
326,3.259000,326,-0.708954,16.643555,-67.136719,-0.389679,2.612427,-6.371338,0.038912,0.005804,0.000000,-7.023088
327,3.270000,327,-0.551697,16.583984,-67.269531,-0.411011,2.543945,-5.916748,0.037817,0.006110,0.000000,-6.547279
328,3.279000,328,-1.005188,15.782715,-67.269531,-0.396591,2.625610,-6.371582,0.039031,0.005896,0.000000,-6.993526
329,3.290000,329,-0.783051,15.539551,-66.460938,-0.345703,2.535767,-6.212402,0.038154,0.005202,0.000000,-6.809375
330,3.299000,330,-0.853210,15.999023,-67.132812,-0.376968,2.655396,-6.598633,0.039554,0.005615,0.000000,-7.236255
331,3.310000,331,-0.054234,16.681641,-67.132812,-0.387222,2.608643,-5.934082,0.038858,0.005768,0.000000,-6.582609
332,3.319000,332,-1.419800,16.268555,-67.273438,-0.361069,2.516113,-6.039307,0.037401,0.005367,0.000000,-6.655392
333,3.330000,333,-0.203102,16.282227,-66.996094,-0.499359,2.652222,-6.003906,0.039588,0.007454,0.000000,-6.649996
334,3.339000,334,-0.053114,16.621094,-67.132812,-0.433624,2.632935,-5.986572,0.039220,0.006459,0.000000,-6.638791
335,3.350000,335,-0.396484,16.617188,-67.000000,-0.364212,2.646851,-6.056396,0.039505,0.005436,0.000000,-6.715018
336,3.359000,336,-0.245071,16.863281,-66.867188,-0.440598,2.627686,-6.091064,0.039297,0.006589,0.000000,-6.755357
337,3.370000,337,-0.914398,15.937012,-67.269531,-0.351654,2.628906,-6.056885,0.039080,0.005228,0.000000,-6.684486
338,3.379000,338,-0.502258,15.574219,-66.996094,-0.390732,2.665771,-5.898926,0.039790,0.005832,0.000000,-6.521553
339,3.390000,339,-1.173218,16.423828,-67.007812,-0.316376,2.573242,-6.143799,0.038402,0.004721,0.000000,-6.780048
340,3.399000,340,-0.992981,16.792969,-66.738281,-0.419525,2.677246,-6.090820,0.040116,0.006286,0.000000,-6.770722
341,3.410000,341,-1.830811,16.539062,-67.011719,-0.369736,2.650269,-6.196289,0.039549,0.005517,0.000000,-6.860499
342,3.419000,342,-1.241882,16.759766,-66.875000,-0.538788,2.571777,-6.405762,0.038456,0.008057,0.000000,-7.060289
343,3.430000,343,-1.797180,16.416992,-67.144531,-0.342682,2.577759,-6.353760,0.038391,0.005104,0.000000,-6.993200
344,3.439000,344,-2.041138,16.108398,-67.277344,-0.456207,2.545044,-6.091797,0.037829,0.006781,0.000000,-6.715005
345,3.450000,345,-0.819336,15.845703,-67.000000,-0.350281,2.583252,-6.126221,0.038556,0.005228,0.000000,-6.741451
346,3.459000,346,-1.193665,15.841797,-67.136719,-0.327744,2.595703,-6.196533,0.038663,0.004882,0.000000,-6.814851
347,3.470000,347,-1.089600,16.976562,-67.144531,-0.398499,2.552246,-5.811768,0.038011,0.005935,0.000000,-6.463534
348,3.480000,348,-1.434753,17.063477,-66.878906,-0.355316,2.566284,-6.230957,0.038372,0.005313,0.000000,-6.893341
349,3.490000,349,-0.339859,16.954102,-67.406250,-0.393311,2.526855,-5.725098,0.037487,0.005835,0.000000,-6.362638
350,3.500000,350,-1.367310,16.820312,-67.414062,-0.395645,2.591675,-6.022461,0.038444,0.005869,0.000000,-6.677128
351,3.509000,351,-0.960144,16.733398,-67.273438,-0.416138,2.677612,-5.637207,0.039802,0.006186,0.000000,-6.309167
352,3.520000,352,-1.615173,16.694336,-67.011719,-0.419586,2.633057,-5.968994,0.039292,0.006261,0.000000,-6.635069
353,3.529000,353,-1.213257,16.913086,-67.144531,-0.445496,2.621338,-5.916748,0.039040,0.006635,0.000000,-6.585089
354,3.540000,354,-1.556091,16.878906,-67.011719,-0.375412,2.513306,-6.091309,0.037505,0.005602,0.000000,-6.733078
355,3.549000,355,-0.057222,16.866211,-67.535156,-0.413422,2.608398,-5.812988,0.038623,0.006122,0.000000,-6.464759
356,3.560000,356,-1.485657,16.419922,-66.605469,-0.390869,2.539429,-5.758057,0.038126,0.005868,0.000000,-6.392808
357,3.569000,357,-1.643127,16.509766,-66.875000,-0.392517,2.534424,-5.828857,0.037898,0.005869,0.000000,-6.464187
358,3.580000,358,-1.864502,16.691406,-67.281250,-0.372086,2.576172,-5.829590,0.038290,0.005530,0.000000,-6.479008
359,3.589000,359,-1.624390,17.214844,-67.281250,-0.334091,2.608887,-5.619629,0.038776,0.004966,0.000000,-6.295215
360,3.600000,360,-1.584839,16.756836,-67.281250,-0.419724,2.511841,-5.584717,0.037333,0.006238,0.000000,-6.220194
361,3.609000,361,-1.392151,16.483398,-67.675781,-0.387787,2.614380,-5.515869,0.038631,0.005730,0.000000,-6.160615
362,3.620000,362,-1.417175,16.115234,-67.140625,-0.429886,2.589111,-5.776611,0.038563,0.006403,0.000000,-6.407129
363,3.629000,363,-1.356873,16.207031,-66.605469,-0.385757,2.640625,-5.792725,0.039646,0.005792,0.000000,-6.443123
364,3.640000,364,-2.044067,16.260742,-67.144531,-0.388351,2.521118,-5.916748,0.037548,0.005784,0.000000,-6.539123
365,3.649000,365,-1.320618,15.962891,-67.269531,-0.401917,2.518677,-5.847168,0.037442,0.005975,0.000000,-6.452734
366,3.660000,366,-1.206116,16.515625,-67.007812,-0.413834,2.499268,-5.898926,0.037298,0.006176,0.000000,-6.522377
367,3.669000,367,-1.082520,16.578125,-66.871094,-0.391159,2.600830,-5.828857,0.038893,0.005849,0.000000,-6.479966
368,3.680000,368,-2.009399,16.078125,-67.277344,-0.264648,2.546021,-5.794678,0.037844,0.003934,0.000000,-6.411037
369,3.690000,369,-1.104004,16.057617,-67.136719,-0.379456,2.598877,-6.126465,0.038710,0.005652,0.000000,-6.754299
370,3.700000,370,-1.241089,16.729492,-67.144531,-0.441803,2.547119,-5.724365,0.037935,0.006580,0.000000,-6.367163
371,3.710000,371,-1.145325,16.638672,-67.675781,-0.389771,2.646851,-5.988037,0.039111,0.005759,0.000000,-6.645385
372,3.720000,372,-1.611511,16.479492,-66.742188,-0.368378,2.535522,-6.265625,0.037990,0.005519,0.000000,-6.900572
373,3.730000,373,-1.614014,16.632812,-67.011719,-0.418304,2.559814,-6.178711,0.038200,0.006242,0.000000,-6.824151
374,3.740000,374,-0.948517,16.089844,-67.136719,-0.331650,2.555054,-5.951660,0.038057,0.004940,0.000000,-6.568685
375,3.750000,375,-1.208374,16.637695,-67.007812,-0.368698,2.572510,-6.196289,0.038391,0.005502,0.000000,-6.841679
376,3.759000,376,-1.139221,16.270508,-67.003906,-0.360718,2.573975,-6.283691,0.038415,0.005384,0.000000,-6.914861
377,3.770000,377,-0.797516,16.367188,-67.136719,-0.432068,2.584717,-6.476318,0.038499,0.006436,0.000000,-7.111576
378,3.779000,378,-0.898346,16.732422,-66.605469,-0.346725,2.656006,-5.897949,0.039877,0.005206,0.000000,-6.569859
379,3.790000,379,-0.865112,16.641602,-67.003906,-0.367065,2.583252,-6.091309,0.038554,0.005478,0.000000,-6.737644
380,3.799000,380,-1.649536,16.877930,-67.148438,-0.399216,2.510254,-5.689453,0.037384,0.005945,0.000000,-6.330219
381,3.810000,381,-0.931976,16.885742,-67.007812,-0.372482,2.581665,-5.829102,0.038528,0.005559,0.000000,-6.484853
382,3.819000,382,-0.829102,18.113281,-67.550781,-0.395538,2.562134,-5.690430,0.037929,0.005855,0.000000,-6.382303
383,3.830000,383,-1.365601,16.728516,-67.542969,-0.417068,2.494019,-5.585693,0.036925,0.006175,0.000000,-6.211825
384,3.839000,384,-1.020508,16.640625,-67.675781,-0.484589,2.602051,-5.865723,0.038449,0.007160,0.000000,-6.512841
385,3.850000,385,-0.312134,17.138672,-67.269531,-0.373672,2.650024,-6.283936,0.039394,0.005555,0.000000,-6.960832
386,3.859000,386,-1.222290,15.719727,-67.539062,-0.300034,2.520996,-6.022705,0.037326,0.004442,0.000000,-6.614897
387,3.870000,387,-1.130615,15.812012,-67.269531,-0.397827,2.475708,-5.759521,0.036803,0.005914,0.000000,-6.348134
388,3.879000,388,-0.638519,16.184570,-66.730469,-0.309738,2.589844,-6.160645,0.038811,0.004642,0.000000,-6.791739
389,3.890000,389,-1.300659,16.543945,-66.605469,-0.344833,2.594238,-6.265137,0.038949,0.005177,0.000000,-6.916246
390,3.899000,390,-1.511963,16.174805,-67.007812,-0.408249,2.610840,-6.003906,0.038963,0.006093,0.000000,-6.643340
391,3.910000,391,-1.726501,15.958008,-67.007812,-0.357147,2.555054,-6.143799,0.038131,0.005330,0.000000,-6.761490
392,3.919000,392,-1.865723,16.752930,-67.148438,-0.350006,2.576172,-6.213867,0.038365,0.005212,0.000000,-6.866324
393,3.930000,393,-1.389648,16.298828,-66.738281,-0.363495,2.566406,-6.195557,0.038455,0.005447,0.000000,-6.829894
394,3.940000,394,-0.298401,16.372070,-67.000000,-0.358627,2.600708,-5.968994,0.038817,0.005353,0.000000,-6.606099
395,3.950000,395,-1.428284,16.696289,-66.605469,-0.396332,2.639282,-6.369873,0.039626,0.005950,0.000000,-7.039973
396,3.960000,396,-1.910217,17.456055,-66.750000,-0.390198,2.576660,-6.003418,0.038602,0.005846,0.000000,-6.688417
397,3.970000,397,-1.649719,16.877930,-67.011719,-0.375885,2.559082,-6.196289,0.038189,0.005609,0.000000,-6.850087
398,3.980000,398,-1.063110,17.221680,-66.875000,-0.356735,2.602539,-6.143555,0.038916,0.005334,0.000000,-6.819433
399,3.990000,399,-1.091248,17.068359,-67.144531,-0.352722,2.625488,-6.301270,0.039102,0.005253,0.000000,-6.974410
400,4.000000,400,-2.182739,17.025391,-67.285156,-0.332932,2.493530,-5.934814,0.037059,0.004948,0.000000,-6.576561
401,4.009000,401,-1.987671,16.598633,-67.281250,-0.323059,2.523315,-6.039307,0.037504,0.004802,0.000000,-6.671365
402,4.019000,402,-1.368958,16.880859,-66.875000,-0.398895,2.592407,-6.196045,0.038765,0.005965,0.000000,-6.858596
403,4.030000,403,-1.361755,16.514648,-67.410156,-0.341537,2.542603,-6.022461,0.037718,0.005067,0.000000,-6.652266
404,4.040000,404,-0.430359,16.769531,-67.136719,-0.390900,2.548340,-5.759277,0.037957,0.005822,0.000000,-6.398312
405,4.049000,405,-0.629547,17.441406,-67.542969,-0.428268,2.567139,-5.655518,0.038007,0.006341,0.000000,-6.322413
406,4.059000,406,-0.048075,16.345703,-67.128906,-0.380188,2.510742,-6.003906,0.037402,0.005664,0.000000,-6.615537
407,4.070000,407,-0.185211,17.017578,-67.136719,-0.347153,2.629517,-6.056641,0.039167,0.005171,0.000000,-6.724119
408,4.080000,408,0.513367,16.351562,-66.859375,-0.330826,2.674927,-6.125977,0.040008,0.004948,0.000000,-6.777634
409,4.089000,409,-0.217537,17.078125,-67.136719,-0.348587,2.555542,-6.213867,0.038065,0.005192,0.000000,-6.865071
410,4.099000,410,-0.467163,17.075195,-67.136719,-0.349762,2.620850,-6.283936,0.039037,0.005210,0.000000,-6.952942
411,4.110000,411,-0.430359,16.769531,-67.136719,-0.247856,2.572754,-5.986572,0.038321,0.003692,0.000000,-6.630788
412,4.120000,412,-1.303711,16.759766,-67.542969,-0.369736,2.617798,-5.935059,0.038758,0.005474,0.000000,-6.591762
413,4.129000,413,-1.078552,16.394531,-67.539062,-0.313339,2.575439,-5.742920,0.038133,0.004639,0.000000,-6.373090
414,4.139000,414,-1.261658,16.147461,-67.136719,-0.334396,2.642822,-5.969238,0.039365,0.004981,0.000000,-6.611164
415,4.150000,415,-1.820007,15.957031,-67.144531,-0.333221,2.576172,-5.602051,0.038368,0.004963,0.000000,-6.223315
416,4.160000,416,-0.944031,15.844727,-67.132812,-0.374222,2.554810,-5.759277,0.038056,0.005574,0.000000,-6.367527
417,4.169000,417,-0.833679,16.642578,-67.273438,-0.365921,2.583984,-6.056885,0.038410,0.005439,0.000000,-6.700664
418,4.179000,418,-0.579346,16.369141,-66.867188,-0.384293,2.592041,-6.283447,0.038764,0.005747,0.000000,-6.921311
419,4.190000,419,-0.133659,15.884277,-66.726562,-0.300964,2.678345,-6.090820,0.040139,0.004510,0.000000,-6.729004
420,4.200000,420,-0.279236,15.332031,-67.125000,-0.312576,2.574829,-5.986572,0.038359,0.004657,0.000000,-6.575990
421,4.209000,421,-0.329300,16.341797,-66.730469,-0.359161,2.599976,-5.880859,0.038962,0.005382,0.000000,-6.519347
422,4.219000,422,-0.131050,15.762207,-67.128906,-0.368484,2.677612,-5.846680,0.039888,0.005489,0.000000,-6.476116
423,4.230000,423,0.247017,15.583496,-67.394531,-0.314178,2.542847,-6.004639,0.037731,0.004662,0.000000,-6.591464
424,4.240000,424,-0.861725,16.458008,-67.003906,-0.363220,2.631836,-5.986328,0.039279,0.005421,0.000000,-6.637451
425,4.250000,425,-0.077351,16.252930,-67.398438,-0.282059,2.582520,-5.935059,0.038317,0.004185,0.000000,-6.558149
426,4.259000,426,-1.165466,16.026367,-67.539062,-0.401474,2.572144,-5.603027,0.038084,0.005944,0.000000,-6.220300
427,4.269000,427,-0.930481,16.825195,-67.406250,-0.345871,2.532471,-5.812744,0.037570,0.005131,0.000000,-6.449646
428,4.280000,428,-0.795288,16.245117,-67.136719,-0.381836,2.608887,-6.091553,0.038859,0.005687,0.000000,-6.727350
429,4.290000,429,-0.574615,16.125000,-67.132812,-0.425903,2.518188,-5.811768,0.037511,0.006344,0.000000,-6.420270
430,4.299000,430,-1.308167,16.973633,-67.011719,-0.423859,2.667603,-6.126221,0.039808,0.006325,0.000000,-6.810182
431,4.309000,431,-0.219093,17.169922,-67.269531,-0.373856,2.604248,-6.004395,0.038714,0.005558,0.000000,-6.670322
432,4.320000,432,-0.570343,17.625977,-67.679688,-0.407440,2.617920,-6.075439,0.038681,0.006020,0.000000,-6.760664
433,4.330000,433,-0.247307,16.985352,-66.867188,-0.395477,2.579102,-5.968506,0.038571,0.005914,0.000000,-6.625102
434,4.339000,434,-0.153824,16.986328,-66.730469,-0.419388,2.606567,-5.828369,0.039061,0.006285,0.000000,-6.492841
435,4.349000,435,-0.169807,17.874023,-67.007812,-0.389252,2.583008,-6.161133,0.038548,0.005809,0.000000,-6.851125
436,4.360000,436,-1.037109,17.528320,-67.281250,-0.433044,2.530396,-6.056885,0.037609,0.006436,0.000000,-6.722786
437,4.370000,437,-0.683899,16.980469,-67.136719,-0.348877,2.565063,-6.056641,0.038207,0.005197,0.000000,-6.708960
438,4.379000,438,-0.895538,18.326172,-67.417969,-0.424622,2.609375,-5.987549,0.038704,0.006298,0.000000,-6.702494
439,4.389000,439,-1.157898,17.312500,-67.414062,-0.404831,2.599121,-6.074951,0.038555,0.006005,0.000000,-6.749381
440,4.400000,440,-0.532684,17.258789,-67.406250,-0.352905,2.618652,-6.057373,0.038849,0.005235,0.000000,-6.730646
441,4.410000,441,-0.597473,17.379883,-67.273438,-0.332443,2.641479,-6.021973,0.039265,0.004942,0.000000,-6.707343
442,4.419000,442,-1.246460,17.036133,-67.414062,-0.399506,2.547241,-6.162354,0.037785,0.005926,0.000000,-6.813451
443,4.429000,443,-0.073521,17.722656,-66.871094,-0.409943,2.634766,-5.933594,0.039401,0.006130,0.000000,-6.632329
444,4.440000,444,-0.387985,17.872070,-67.277344,-0.389313,2.575928,-6.004395,0.038288,0.005787,0.000000,-6.690928
445,4.450000,445,-0.316498,17.383789,-67.406250,-0.354431,2.577026,-6.197266,0.038231,0.005258,0.000000,-6.863534
446,4.459000,446,-0.795563,17.958984,-67.011719,-0.394119,2.612305,-6.091309,0.038983,0.005881,0.000000,-6.796079
447,4.469000,447,-1.138489,17.956055,-67.417969,-0.370453,2.552246,-6.004883,0.037857,0.005495,0.000000,-6.690902
448,4.480000,448,-0.856018,17.835938,-66.742188,-0.392868,2.537231,-6.003418,0.038015,0.005886,0.000000,-6.686497
449,4.490000,449,-1.041138,17.742188,-67.148438,-0.414200,2.652832,-6.283936,0.039507,0.006168,0.000000,-6.991298
450,4.500000,450,-0.755707,17.500977,-67.277344,-0.431091,2.636719,-5.969482,0.039192,0.006408,0.000000,-6.660219
451,4.509000,451,-1.047729,18.110352,-67.285156,-0.349854,2.677490,-6.092041,0.039793,0.005200,0.000000,-6.818157
452,4.519000,452,-1.603088,17.735352,-66.882812,-0.417816,2.513428,-6.003662,0.037580,0.006247,0.000000,-6.680164
453,4.530000,453,-1.206726,18.166992,-65.273438,-0.430740,2.699219,-6.349365,0.041352,0.006599,0.000000,-7.108579
454,4.540000,454,-0.500092,21.057617,-43.433594,-0.877625,4.944824,-6.802979,0.113848,0.020206,0.000000,-9.210449
455,4.549000,455,3.814331,31.059570,88.347656,-2.463379,17.500977,-7.526611,-0.198092,-0.027883,0.000000,-1.480309
456,4.559000,456,14.971680,48.250000,156.945312,-2.870850,23.533203,-9.083984,-0.149945,-0.018292,0.000000,-2.122989
457,4.570000,457,36.230469,42.386719,201.578125,-4.820557,25.448242,-8.463867,-0.126245,-0.023914,0.000000,-3.979172
458,4.580000,458,60.111328,24.375000,251.976562,-6.252197,28.790039,-5.979004,-0.114257,-0.024813,0.000000,-4.685513
459,4.589000,459,81.042969,12.569824,299.015625,-8.875977,30.952148,-3.199097,-0.103513,-0.029684,0.000000,-4.303629
460,4.599000,460,87.769531,8.079590,363.671875,-12.458008,33.064453,-1.759766,-0.090918,-0.034256,0.000000,-4.031831
461,4.610000,461,98.996094,5.469971,421.562500,-14.941406,35.240234,-0.846039,-0.083594,-0.035443,0.000000,-3.897491
462,4.620000,462,108.449219,2.066284,451.875000,-16.758789,35.439453,0.076508,-0.078428,-0.037087,0.000000,-3.783519
463,4.629000,463,113.468750,-5.710205,477.390625,-18.254883,35.582031,1.182617,-0.074534,-0.038239,0.000000,-3.581907
464,4.639000,464,113.433594,-13.685547,492.093750,-19.535156,35.171875,2.384521,-0.071474,-0.039698,0.000000,-3.096730
465,4.650000,465,113.390625,-19.081055,506.921875,-20.729492,35.000000,3.313232,-0.069044,-0.040893,0.000000,-2.641072
466,4.660000,466,112.855469,-22.231445,525.281250,-21.786133,35.324219,3.648193,-0.067248,-0.041475,0.000000,-2.527532
467,4.669000,467,108.960938,-21.928711,545.812500,-22.479492,36.199219,3.702026,-0.066322,-0.041185,0.000000,-2.239920
468,4.679000,468,104.539062,-19.327148,560.500000,-22.970703,36.812500,3.683838,-0.065678,-0.040983,0.000000,-1.869804
469,4.690000,469,97.855469,-16.303711,568.375000,-23.175781,37.166016,3.691650,-0.065390,-0.040776,0.000000,-1.364555
470,4.700000,470,91.550781,-13.129395,573.750000,-23.256836,37.404297,3.300537,-0.065193,-0.040535,0.000000,-1.266395
471,4.710000,471,85.761719,-10.729492,573.812500,-23.257812,37.460938,3.283936,-0.065284,-0.040532,0.000000,-0.892632
472,4.719000,472,78.917969,-9.361328,570.750000,-23.184570,37.435547,3.049927,-0.065590,-0.040621,0.000000,-0.769829
473,4.730000,473,72.304688,-9.322754,566.031250,-23.291016,36.947266,2.436890,-0.065274,-0.041148,0.000000,-1.146835
474,4.740000,474,66.792969,-10.729492,558.375000,-23.357422,36.193359,2.399414,-0.064819,-0.041831,0.000000,-1.090083
475,4.750000,475,60.765625,-12.211426,550.343750,-23.635742,35.640625,2.460449,-0.064761,-0.042947,0.000000,-0.940086
476,4.759000,476,56.148438,-14.244629,544.937500,-23.953125,34.839844,2.491699,-0.063934,-0.043956,0.000000,-0.887057
477,4.769000,477,51.724609,-16.624023,542.375000,-24.267578,34.164062,2.492188,-0.062990,-0.044743,0.000000,-0.869279
478,4.780000,478,50.660156,-18.267578,541.656250,-24.655273,33.568359,2.330566,-0.061974,-0.045518,0.000000,-1.107504
479,4.790000,479,50.017578,-18.346680,542.343750,-25.158203,33.083984,2.595581,-0.061002,-0.046388,0.000000,-0.843813
480,4.799000,480,47.482422,-16.583984,545.500000,-25.613281,32.671875,2.436523,-0.059893,-0.046954,0.000000,-0.786227
481,4.809000,481,46.029297,-15.003906,549.437500,-26.247070,32.193359,2.001587,-0.058593,-0.047771,0.000000,-1.076398
482,4.820000,482,43.417969,-14.270020,556.750000,-26.634766,31.999023,1.600830,-0.057475,-0.047840,0.000000,-1.296438
483,4.830000,483,41.304688,-11.909180,565.000000,-27.280273,32.111328,1.054199,-0.056834,-0.048284,0.000000,-1.616992
484,4.839000,484,38.060547,-12.010742,570.281250,-27.828125,31.898438,0.734711,-0.055935,-0.048797,0.000000,-1.794353
485,4.849000,485,33.927734,-12.457520,571.593750,-28.124023,31.509766,0.248695,-0.055126,-0.049203,0.000000,-2.107380
486,4.860000,486,31.208984,-13.498047,571.250000,-28.459961,31.137695,0.267410,-0.054508,-0.049821,0.000000,-2.023189
487,4.870000,487,28.840820,-14.887695,569.312500,-28.783203,30.333984,0.090332,-0.053282,-0.050558,0.000000,-2.161040
488,4.879000,488,26.670898,-16.142578,566.625000,-29.204102,29.658203,-0.119156,-0.052342,-0.051540,0.000000,-2.338718
489,4.889000,489,24.144531,-17.035156,565.187500,-29.450195,28.780273,-0.538879,-0.050922,-0.052107,0.000000,-2.664435
490,4.900000,490,22.032227,-16.873047,564.437500,-29.793945,28.083984,-0.907745,-0.049756,-0.052785,0.000000,-2.910251
491,4.910000,491,20.628906,-16.385742,564.843750,-30.175781,27.407227,-1.032043,-0.048522,-0.053423,0.000000,-2.929172
492,4.919000,492,17.870117,-15.084473,565.593750,-30.508789,26.841797,-1.114380,-0.047458,-0.053941,0.000000,-2.794190
493,4.929000,493,14.222168,-14.993164,566.250000,-30.837891,26.079102,-1.798767,-0.046056,-0.054460,0.000000,-3.263826
494,4.940000,494,13.445312,-13.542480,566.656250,-31.192383,25.547852,-2.128540,-0.045085,-0.055046,0.000000,-3.479222
495,4.950000,495,11.209473,-13.440430,565.750000,-31.655273,24.630859,-2.674927,-0.043537,-0.055953,0.000000,-3.887279
496,4.960000,496,7.234131,-13.519043,564.750000,-32.376953,23.347656,-2.837769,-0.041342,-0.057330,0.000000,-3.811398
497,4.969000,497,6.313965,-14.200684,563.375000,-33.097656,22.223633,-3.036011,-0.039447,-0.058749,0.000000,-3.967128
498,4.980000,498,5.346680,-14.990723,563.218750,-33.888672,20.875000,-3.102173,-0.037064,-0.060170,0.000000,-3.979493
499,4.990000,499,5.102051,-15.057129,563.000000,-34.552734,19.650391,-3.250977,-0.034903,-0.061373,0.000000,-4.089641
500,5.000000,500,4.691162,-14.419922,562.906250,-35.121094,18.470703,-3.348633,-0.032813,-0.062392,0.000000,-4.114488
501,5.009000,501,3.120239,-14.857422,562.593750,-35.808594,17.376953,-3.848022,-0.030887,-0.063649,0.000000,-4.505527
502,5.019000,502,1.382446,-14.608887,564.437500,-36.539062,16.306641,-4.479736,-0.028890,-0.064735,0.000000,-4.991282
503,5.030000,503,0.155037,-16.105469,564.906250,-37.150391,15.319824,-4.964355,-0.027119,-0.065764,0.000000,-5.411319
504,5.040000,504,-0.998138,-16.890625,567.468750,-37.927734,14.239258,-5.334229,-0.025093,-0.066837,0.000000,-5.691346
505,5.049000,505,-3.706787,-16.846680,569.312500,-38.611328,13.432617,-5.855713,-0.023594,-0.067821,0.000000,-6.001803
506,5.059000,506,-5.679688,-19.177734,571.343750,-39.441406,12.427734,-6.351318,-0.021752,-0.069033,0.000000,-6.376384
507,5.070000,507,-6.841064,-20.505859,574.687500,-40.343750,11.592773,-6.981201,-0.020172,-0.070201,0.000000,-6.914601
508,5.080000,508,-9.129883,-21.804688,578.562500,-41.494141,10.481934,-7.422852,-0.018117,-0.071719,0.000000,-7.163102
509,5.089000,509,-11.698242,-24.350586,582.968750,-42.421875,9.506836,-7.587891,-0.016308,-0.072769,0.000000,-7.133725
510,5.099000,510,-15.301270,-25.471680,585.218750,-43.337891,8.453613,-7.931396,-0.014445,-0.074054,0.000000,-7.166217
511,5.110000,511,-18.496094,-26.298828,588.656250,-44.513672,7.564209,-8.945801,-0.012850,-0.075619,0.000000,-7.885082
512,5.120000,512,-22.459961,-26.746094,591.531250,-45.384766,6.718506,-9.475098,-0.011358,-0.076724,0.000000,-8.055653
513,5.129000,513,-24.840820,-27.070312,592.687500,-46.123047,5.870117,-10.111816,-0.009904,-0.077820,0.000000,-8.446811
514,5.139000,514,-28.549805,-29.189453,591.656250,-46.615234,4.880127,-10.395020,-0.008248,-0.078788,0.000000,-8.386408
515,5.150000,515,-30.352539,-29.301758,588.468750,-47.042969,3.972534,-10.883301,-0.006751,-0.079941,0.000000,-8.654684
516,5.160000,516,-31.077148,-30.100586,582.687500,-47.302734,3.020752,-11.331055,-0.005184,-0.081180,0.000000,-8.964250
517,5.169000,517,-33.306641,-29.486328,576.593750,-47.552734,2.416260,-12.180664,-0.004191,-0.082472,0.000000,-9.557369
518,5.179000,518,-35.931641,-29.759766,569.312500,-47.423828,1.772583,-12.860352,-0.003114,-0.083300,0.000000,-9.959899
519,5.190000,519,-39.882812,-29.977539,560.750000,-46.966797,1.283569,-12.992188,-0.002289,-0.083757,0.000000,-9.720339
520,5.200000,520,-43.841797,-29.314453,549.468750,-46.376953,0.940552,-13.364258,-0.001712,-0.084403,0.000000,-9.714046
521,5.209000,521,-45.857422,-28.964844,538.781250,-45.535156,0.947449,-13.920898,-0.001759,-0.084515,0.000000,-10.096189
522,5.219000,522,-49.623047,-28.152344,527.531250,-44.613281,0.951752,-14.359863,-0.001804,-0.084570,0.000000,-10.214037
523,5.230000,523,-52.849609,-26.520508,515.031250,-43.580078,1.143860,-14.867188,-0.002221,-0.084616,0.000000,-10.454145
524,5.240000,524,-57.037109,-25.853516,498.734375,-42.021484,1.644836,-15.564453,-0.003298,-0.084256,0.000000,-10.843987
525,5.250000,525,-59.984375,-23.411133,471.437500,-39.966797,1.763611,-15.813477,-0.003741,-0.084776,0.000000,-10.815793
526,5.259000,526,-58.208984,-22.606445,425.765625,-37.201172,1.008240,-15.575684,-0.002368,-0.087375,0.000000,-10.543221
527,5.269000,527,-50.951172,-19.699219,372.296875,-34.273438,-0.298477,-15.244141,0.000802,-0.092059,0.000000,-10.537812
528,5.280000,528,-40.816406,-17.322266,305.468750,-30.877930,-2.241211,-14.183594,0.007337,-0.101084,0.000000,-9.930626
529,5.290000,529,-27.564453,-15.674805,240.835938,-27.525391,-3.743408,-13.081543,0.015543,-0.114291,0.000000,-9.687532
530,5.299000,530,-17.473633,-11.308105,190.187500,-24.435547,-4.952881,-12.438477,0.026042,-0.128481,0.000000,-9.898953
531,5.309000,531,-11.875000,-7.844482,149.710938,-21.600586,-5.066895,-11.937988,0.033845,-0.144282,0.000000,-9.959147
532,5.320000,532,-7.551514,-6.107666,114.875000,-19.003906,-4.928711,-11.629883,0.042905,-0.165431,0.000000,-10.118577
533,5.330000,533,-10.566406,-8.964844,84.675781,-16.660156,-4.855713,-10.631836,0.057345,-0.196752,0.000000,-8.038784
534,5.339000,534,-8.113770,-8.732422,61.873047,-14.763672,-4.029541,-10.148438,0.065126,-0.238612,0.000000,-7.643684
535,5.349000,535,-5.202393,-7.243408,42.228516,-12.670898,-3.270996,-9.551758,0.077459,-0.300056,0.000000,-7.429681
536,5.360000,536,-7.270752,-2.946533,24.458008,-10.596191,-2.417236,-9.239746,0.098832,-0.433240,0.000000,-5.798553
537,5.370000,537,-7.650635,0.589844,6.457275,-8.587402,-1.499084,-8.481445,0.232154,-1.329880,0.000000,1.556046
538,5.379000,538,-8.028320,4.329346,-10.008789,-6.626709,-0.523743,-8.243164,-0.052328,0.662089,0.000000,-13.332079
539,5.389000,539,-7.733398,7.719727,-24.640625,-4.901611,0.401154,-7.596924,0.016280,0.198924,0.000000,-9.260961
540,5.400000,540,-6.981689,9.949219,-37.517578,-3.466431,1.047791,-7.330811,0.027928,0.092395,0.000000,-8.253744
541,5.410000,541,-5.921631,12.272461,-48.248047,-2.373047,1.682373,-7.076904,0.034869,0.049184,0.000000,-7.796087
542,5.419000,542,-4.063721,13.466797,-55.748047,-1.455078,2.099854,-6.395996,0.037667,0.026101,0.000000,-7.009315
543,5.429000,543,-2.754028,15.541016,-61.515625,-0.922119,2.357666,-6.112793,0.038326,0.014990,0.000000,-6.749705
544,5.440000,544,-0.292053,15.941895,-65.386719,-0.498611,2.601807,-5.790283,0.039791,0.007626,0.000000,-6.426856
545,5.450000,545,-0.555634,16.736328,-66.062500,-0.442474,2.667236,-5.879395,0.040374,0.006698,0.000000,-6.558836
546,5.459000,546,-1.838379,16.905273,-66.074219,-0.452377,2.651733,-6.001709,0.040133,0.006847,0.000000,-6.692749
547,5.469000,547,-0.774292,16.733398,-65.796875,-0.444473,2.612061,-6.123291,0.039699,0.006755,0.000000,-6.792818
548,5.480000,548,-0.684235,16.949219,-66.199219,-0.423187,2.590454,-5.844482,0.039131,0.006393,0.000000,-6.512100
549,5.490000,549,-1.520386,16.571289,-65.800781,-0.397125,2.637085,-5.930908,0.040077,0.006035,0.000000,-6.604208
550,5.500000,550,-1.258911,17.646484,-66.074219,-0.417221,2.549438,-6.001709,0.038584,0.006314,0.000000,-6.690538
551,5.509000,551,-1.049194,16.423828,-66.199219,-0.461777,2.553711,-6.106934,0.038576,0.006976,0.000000,-6.747820
552,5.519000,552,0.202309,16.223633,-65.519531,-0.382324,2.690918,-6.350098,0.041070,0.005835,0.000000,-7.015229
553,5.530000,553,-0.688080,17.131836,-65.664062,-0.428986,2.640137,-6.420166,0.040207,0.006533,0.000000,-7.113476
554,5.540000,554,-1.513550,16.204102,-65.933594,-0.412796,2.587769,-6.228516,0.039248,0.006261,0.000000,-6.873972
555,5.549000,555,-1.380432,15.746582,-65.796875,-0.426956,2.591064,-6.193115,0.039380,0.006489,0.000000,-6.822169
556,5.559000,556,-0.646240,16.550781,-65.660156,-0.512054,2.713379,-6.367676,0.041325,0.007799,0.000000,-7.056670
557,5.570000,557,-1.893494,16.505859,-66.074219,-0.444336,2.624756,-6.403809,0.039724,0.006725,0.000000,-7.072227
558,5.580000,558,-1.986572,16.474609,-66.074219,-0.444122,2.573120,-6.176514,0.038943,0.006722,0.000000,-6.831435
559,5.589000,559,-2.288330,15.951172,-66.878906,-0.431778,2.610596,-6.335693,0.039035,0.006456,0.000000,-6.973116
560,5.599000,560,-1.978027,16.015625,-66.203125,-0.410217,2.596802,-6.526611,0.039225,0.006196,0.000000,-7.167077
561,5.610000,561,-1.673645,16.416016,-65.800781,-0.442368,2.631958,-6.368164,0.039999,0.006723,0.000000,-7.036038
562,5.620000,562,-2.572632,16.100586,-66.210938,-0.414932,2.578369,-6.246826,0.038942,0.006267,0.000000,-6.889933
563,5.629000,563,-1.645447,16.601562,-66.207031,-0.420731,2.559570,-5.809570,0.038660,0.006355,0.000000,-6.461845
564,5.639000,564,-0.770935,16.549805,-65.796875,-0.345276,2.562988,-5.948486,0.038953,0.005248,0.000000,-6.597197
565,5.650000,565,-1.283630,15.594727,-66.199219,-0.350311,2.617920,-5.617188,0.039546,0.005292,0.000000,-6.240690
566,5.660000,566,-1.008911,15.935059,-66.332031,-0.379379,2.651367,-5.862305,0.039971,0.005719,0.000000,-6.505017
567,5.669000,567,0.294739,16.317383,-66.054688,-0.381851,2.669067,-5.984131,0.040407,0.005781,0.000000,-6.641763
568,5.679000,568,-0.674042,16.398438,-66.332031,-0.435043,2.589722,-5.897217,0.039042,0.006559,0.000000,-6.541862
569,5.690000,569,-1.637024,16.141602,-66.203125,-0.458862,2.607666,-5.932129,0.039389,0.006931,0.000000,-6.579275
570,5.700000,570,-1.979675,16.107422,-66.203125,-0.364456,2.523926,-5.844482,0.038124,0.005505,0.000000,-6.469460
571,5.710000,571,-1.617981,16.816406,-66.339844,-0.400742,2.585205,-5.897217,0.038969,0.006041,0.000000,-6.562311
572,5.719000,572,-1.584534,16.694336,-66.339844,-0.350357,2.585938,-6.107178,0.038980,0.005281,0.000000,-6.766294
573,5.730000,573,-1.461548,16.787109,-66.207031,-0.423691,2.614380,-5.862061,0.039488,0.006399,0.000000,-6.534302
574,5.740000,574,-1.619873,16.907227,-66.074219,-0.355927,2.487915,-5.861572,0.037653,0.005387,0.000000,-6.506912
575,5.750000,575,-0.834778,16.640625,-66.066406,-0.346512,2.585327,-6.263916,0.039132,0.005245,0.000000,-6.919479
576,5.759000,576,-1.229065,17.645508,-64.597656,-0.493973,2.600952,-5.561035,0.040264,0.007647,0.000000,-6.280910
577,5.769000,577,-1.298950,19.569336,-60.994141,-0.714569,2.338257,-5.481934,0.038336,0.011715,0.000000,-6.247357
578,5.780000,578,-1.432556,21.647461,-58.861328,-0.814026,2.364746,-5.581543,0.040175,0.013830,0.000000,-6.471038
579,5.790000,579,-0.985596,22.660156,-56.048828,-0.914734,2.140015,-5.540039,0.038181,0.016320,0.000000,-6.421318
580,5.799000,580,-1.357361,23.935547,-50.697266,-1.010498,2.210083,-5.317139,0.043594,0.019932,0.000000,-6.387633
581,5.809000,581,-2.306885,20.915039,-44.251953,-1.119141,1.792114,-5.476074,0.040498,0.025290,0.000000,-6.381433
582,5.820000,582,-3.936768,15.615234,-33.505859,-1.437866,1.280396,-5.729736,0.038214,0.042914,0.000000,-6.495400
583,5.830000,583,-6.536621,10.363281,-21.027344,-1.697266,0.642761,-6.188721,0.030568,0.080717,0.000000,-7.033121
584,5.839000,584,-10.293457,4.681396,-1.944763,-2.203491,-0.390411,-6.658447,-0.200750,1.133038,0.000000,-17.381538
585,5.849000,585,-12.895996,2.138916,19.789062,-2.195068,-1.397217,-7.033691,0.070606,-0.110923,0.000000,-5.754244
586,5.860000,586,-15.407715,4.514160,48.148438,-1.738464,-2.825195,-7.134277,0.058677,-0.036106,0.000000,-6.842837
587,5.870000,587,-20.807617,8.395996,81.187500,-0.963898,-4.648193,-6.274170,0.057253,-0.011872,0.000000,-6.507824
588,5.879000,588,-30.295898,8.898438,122.820312,0.654663,-6.932861,-5.633301,0.056447,0.005330,0.000000,-6.297077
589,5.889000,589,-42.488281,9.880859,166.273438,2.355591,-9.645020,-4.802246,0.058007,0.014167,0.000000,-5.977335
590,5.900000,590,-54.083984,11.888184,205.523438,4.249268,-11.930664,-3.805054,0.058050,0.020675,0.000000,-5.613369
591,5.910000,591,-62.859375,14.598145,242.468750,5.606201,-13.787109,-3.562134,0.056861,0.023121,0.000000,-5.845597
592,5.919000,592,-72.574219,14.475586,280.281250,6.998047,-15.878418,-2.922852,0.056652,0.024968,0.000000,-5.554947
593,5.929000,593,-80.082031,15.393555,321.328125,8.505859,-18.250000,-2.352295,0.056796,0.026471,0.000000,-5.346427
594,5.940000,594,-87.062500,16.915039,365.140625,9.932129,-20.627930,-2.047729,0.056493,0.027201,0.000000,-5.371485
595,5.950000,595,-91.605469,17.609375,405.921875,11.292480,-23.023438,-1.651123,0.056719,0.027819,0.000000,-5.198311
596,5.960000,596,-96.070312,17.083984,439.921875,12.440918,-25.155273,-1.951416,0.057181,0.028280,0.000000,-5.645152
597,5.969000,597,-98.980469,16.161133,466.406250,13.077637,-26.716797,-1.667725,0.057282,0.028039,0.000000,-5.368799
598,5.980000,598,-100.281250,16.132812,487.250000,13.614746,-27.953125,-1.963989,0.057369,0.027942,0.000000,-5.691575
599,5.990000,599,-102.984375,16.382812,503.906250,14.015137,-28.932617,-1.700562,0.057417,0.027813,0.000000,-5.505511
600,6.000000,600,-103.562500,16.105469,520.406250,14.462891,-29.806641,-1.585205,0.057276,0.027792,0.000000,-5.385818
601,6.009000,601,-105.820312,17.204102,536.750000,14.992188,-30.862305,-1.493469,0.057498,0.027931,0.000000,-5.438390
602,6.019000,602,-108.035156,17.871094,549.437500,15.358887,-31.485352,-1.314758,0.057305,0.027954,0.000000,-5.358853
603,6.030000,603,-107.976562,18.372070,557.312500,15.314453,-31.911133,-1.186218,0.057259,0.027479,0.000000,-5.205284
604,6.040000,604,-108.031250,19.040039,559.687500,15.056641,-31.859375,-0.659210,0.056924,0.026902,0.000000,-4.649279
605,6.049000,605,-106.761719,18.709961,560.437500,14.290527,-31.692383,-0.671387,0.056549,0.025499,0.000000,-4.451727
606,6.059000,606,-103.660156,18.100586,561.906250,13.535156,-31.554688,-1.227783,0.056156,0.024088,0.000000,-4.741207
607,6.070000,607,-101.882812,17.525391,562.531250,12.706055,-31.342773,-1.104980,0.055717,0.022587,0.000000,-4.382706
608,6.080000,608,-101.003906,16.207031,562.125000,11.796387,-31.240234,-1.266663,0.055575,0.020985,0.000000,-4.286974
609,6.089000,609,-100.472656,16.062500,561.437500,10.866699,-31.008789,-1.526672,0.055231,0.019355,0.000000,-4.358483
610,6.099000,610,-100.003906,14.766113,559.312500,9.704102,-30.590820,-1.815369,0.054694,0.017350,0.000000,-4.358054
611,6.110000,611,-99.640625,14.753906,555.625000,8.666992,-29.933594,-1.885315,0.053874,0.015599,0.000000,-4.234421
612,6.120000,612,-100.500000,13.421875,552.093750,7.810791,-29.587891,-1.845032,0.053592,0.014148,0.000000,-3.986171
613,6.129000,613,-100.910156,12.808105,547.437500,6.995117,-28.985352,-2.231079,0.052947,0.012778,0.000000,-4.198657
614,6.139000,614,-100.894531,11.814453,543.218750,6.304932,-28.461914,-2.417969,0.052395,0.011607,0.000000,-4.208031
615,6.150000,615,-99.570312,11.478027,538.125000,5.845703,-28.130859,-2.676025,0.052276,0.010863,0.000000,-4.357689
616,6.160000,616,-98.621094,11.047363,533.843750,5.383789,-27.739258,-3.147339,0.051961,0.010085,0.000000,-4.715964
617,6.169000,617,-97.179688,11.041992,530.281250,5.334961,-27.740234,-3.356445,0.052312,0.010061,0.000000,-4.911766
618,6.179000,618,-96.046875,10.726074,531.781250,5.716553,-27.959961,-3.719238,0.052578,0.010750,0.000000,-5.315680
619,6.190000,619,-96.339844,11.558594,532.156250,6.097168,-27.991211,-3.562744,0.052600,0.011457,0.000000,-5.274533
620,6.200000,620,-96.058594,11.867188,522.593750,6.015625,-27.556641,-3.489380,0.052731,0.011511,0.000000,-5.220882
621,6.209000,621,-95.199219,11.645020,506.250000,5.506836,-26.528320,-3.736816,0.052402,0.010878,0.000000,-5.382583
622,6.219000,622,-90.832031,11.135254,481.828125,4.700439,-25.184570,-4.233398,0.052269,0.009755,0.000000,-5.701530
623,6.230000,623,-83.761719,11.526855,454.750000,3.995728,-23.523438,-4.559814,0.051728,0.008787,0.000000,-5.892064
624,6.240000,624,-77.085938,11.023438,428.375000,3.560547,-22.325195,-4.835449,0.052116,0.008312,0.000000,-6.050666
625,6.250000,625,-71.148438,11.638184,405.078125,3.370483,-21.243164,-5.223145,0.052442,0.008321,0.000000,-6.425472
626,6.259000,626,-66.019531,12.884277,383.718750,3.604858,-20.406250,-5.494629,0.053180,0.009395,0.000000,-6.800040
627,6.269000,627,-61.175781,15.524414,364.093750,4.088135,-19.527344,-5.020996,0.053633,0.011228,0.000000,-6.540510
628,6.280000,628,-60.552734,12.539062,345.984375,4.624023,-18.805664,-5.528809,0.054354,0.013365,0.000000,-7.019635
629,6.290000,629,-57.310547,13.832520,328.984375,5.394531,-18.277344,-5.567871,0.055557,0.016398,0.000000,-7.276114
630,6.299000,630,-53.980469,15.094238,312.906250,5.571045,-17.621094,-5.231934,0.056314,0.017804,0.000000,-7.043034
631,6.309000,631,-51.662109,15.354980,300.140625,5.866211,-17.195312,-5.157471,0.057291,0.019545,0.000000,-7.046900
632,6.320000,632,-49.664062,16.158203,289.093750,6.024170,-16.709961,-5.276611,0.057801,0.020838,0.000000,-7.245481
633,6.330000,633,-46.773438,16.970703,279.781250,6.252686,-16.291992,-5.814209,0.058231,0.022348,0.000000,-7.847748
634,6.339000,634,-45.515625,17.161133,271.140625,6.602783,-16.278320,-5.666016,0.060036,0.024352,0.000000,-7.804700
635,6.349000,635,-43.054688,17.265625,265.390625,6.995605,-16.118164,-5.809814,0.060734,0.026360,0.000000,-7.993327
636,6.360000,636,-42.525391,17.704102,259.921875,7.229004,-16.081055,-5.820312,0.061869,0.027812,0.000000,-8.098370
637,6.370000,637,-41.201172,18.208984,255.398438,7.341309,-15.937988,-6.045410,0.062404,0.028745,0.000000,-8.366039
638,6.379000,638,-40.447266,18.327148,251.015625,7.528809,-15.743652,-5.821533,0.062720,0.029993,0.000000,-8.184158
639,6.389000,639,-40.607422,18.361328,248.304688,7.469727,-15.715332,-6.212891,0.063291,0.030083,0.000000,-8.596578
640,6.400000,640,-39.982422,18.137695,245.515625,7.418945,-15.670410,-6.656982,0.063827,0.030218,0.000000,-9.022830
641,6.410000,641,-40.175781,17.702148,242.335938,7.535889,-15.634277,-6.279541,0.064515,0.031097,0.000000,-8.670935
642,6.419000,642,-39.437500,17.934570,239.820312,7.284424,-15.484863,-6.472900,0.064569,0.030375,0.000000,-8.828806
643,6.429000,643,-38.558594,17.963867,236.781250,6.991211,-15.357910,-6.358398,0.064861,0.029526,0.000000,-8.662038
644,6.440000,644,-37.482422,17.667969,233.062500,6.637451,-15.149414,-6.415283,0.065002,0.028479,0.000000,-8.631200
645,6.450000,645,-36.828125,16.564453,228.046875,6.207031,-14.688965,-6.727051,0.064412,0.027218,0.000000,-8.796397
646,6.459000,646,-35.976562,15.635254,222.851562,5.797607,-14.441406,-7.305908,0.064803,0.026016,0.000000,-9.255067
647,6.469000,647,-36.044922,15.008789,218.734375,5.563232,-14.080566,-6.956055,0.064373,0.025434,0.000000,-8.838971
648,6.480000,648,-35.525391,15.369629,214.601562,5.265137,-13.821289,-7.198730,0.064404,0.024534,0.000000,-9.060200
649,6.490000,649,-35.873047,14.489746,211.414062,5.054443,-13.568359,-7.127686,0.064179,0.023908,0.000000,-8.915269
650,6.500000,650,-35.535156,14.177246,206.078125,4.844727,-13.120117,-7.039551,0.063666,0.023509,0.000000,-8.777558
651,6.509000,651,-35.257812,14.523438,201.804688,4.713379,-12.723145,-7.244141,0.063047,0.023356,0.000000,-8.983284
652,6.519000,652,-34.343750,15.787109,197.304688,4.433105,-12.243652,-7.323242,0.062055,0.022468,0.000000,-9.074551
653,6.530000,653,-34.109375,16.153320,194.375000,4.295898,-12.090820,-6.998779,0.062204,0.022101,0.000000,-8.757427
654,6.540000,654,-33.177734,16.970703,192.210938,4.388184,-11.812988,-7.374512,0.061458,0.022830,0.000000,-9.174954
655,6.549000,655,-33.031250,16.758789,191.945312,4.537842,-11.906738,-7.208984,0.062032,0.023641,0.000000,-9.029468
656,6.559000,656,-32.195312,18.423828,192.976562,4.841797,-11.947266,-7.347412,0.061910,0.025090,0.000000,-9.295823
657,6.570000,657,-31.311523,19.739258,193.343750,5.178955,-12.060059,-7.045166,0.062376,0.026786,0.000000,-9.115146
658,6.580000,658,-31.396484,20.898438,193.656250,5.647217,-12.297363,-6.837891,0.063501,0.029161,0.000000,-9.080516
659,6.589000,659,-31.131836,23.119141,192.554688,5.944824,-12.290039,-6.432373,0.063826,0.030873,0.000000,-8.869127
660,6.599000,660,-30.821289,25.038086,188.640625,6.284180,-12.211426,-6.367920,0.064734,0.033313,0.000000,-9.015479
661,6.610000,661,-30.002930,27.205078,183.554688,6.550781,-12.246582,-6.533691,0.066719,0.035688,0.000000,-9.419544
662,6.620000,662,-27.994141,29.545898,176.070312,6.611816,-11.945801,-5.920166,0.067847,0.037552,0.000000,-8.975999
663,6.629000,663,-26.011719,31.670898,164.593750,6.596924,-11.406738,-5.402344,0.069302,0.040080,0.000000,-8.639763
664,6.639000,664,-23.808594,32.232422,152.453125,6.401123,-10.638184,-5.319092,0.069780,0.041987,0.000000,-8.567934
665,6.650000,665,-21.352539,33.212891,136.312500,5.781982,-9.914062,-5.143799,0.072730,0.042417,0.000000,-8.465098
666,6.660000,666,-19.640625,31.539062,117.031250,5.034668,-8.739258,-5.353027,0.074675,0.043020,0.000000,-8.553130
667,6.669000,667,-16.078125,29.269531,96.597656,4.022461,-7.476807,-5.549561,0.077402,0.041641,0.000000,-8.484583
668,6.679000,668,-14.526855,27.970703,76.265625,2.941162,-6.064697,-5.711914,0.079521,0.038565,0.000000,-8.496388
669,6.690000,669,-12.103516,26.047852,56.699219,2.012329,-4.657959,-5.948486,0.082152,0.035491,0.000000,-8.517941
670,6.700000,670,-10.616211,24.833008,41.333984,1.159363,-3.572388,-5.806396,0.086427,0.028049,0.000000,-8.250419
671,6.710000,671,-11.024414,22.610352,35.636719,0.720673,-3.177734,-5.957764,0.089170,0.020223,0.000000,-8.196878
672,6.719000,672,-14.857422,18.913086,46.521484,0.943329,-4.043701,-5.857666,0.086921,0.020277,0.000000,-7.802881
673,6.730000,673,-19.704102,16.058594,69.820312,1.839539,-5.423096,-5.855225,0.077672,0.026347,0.000000,-7.621670
674,6.740000,674,-24.005859,15.485840,88.566406,2.469482,-6.591553,-5.773926,0.074425,0.027883,0.000000,-7.595811
675,6.750000,675,-27.462891,18.089844,103.929688,3.173950,-7.488281,-5.680908,0.072051,0.030539,0.000000,-7.823008
676,6.759000,676,-32.482422,20.370117,130.242188,4.624023,-9.398926,-5.337646,0.072165,0.035503,0.000000,-7.960888
677,6.769000,677,-36.003906,23.173828,155.843750,6.200684,-11.190918,-4.995850,0.071809,0.039788,0.000000,-8.092446
678,6.780000,678,-37.507812,24.221680,175.359375,7.338623,-12.602051,-4.724121,0.071864,0.041849,0.000000,-8.034458
679,6.790000,679,-37.720703,26.902344,184.820312,7.943359,-12.864746,-4.428955,0.069607,0.042979,0.000000,-7.922732
680,6.799000,680,-37.501953,28.443359,183.468750,7.778320,-12.660156,-4.712646,0.069004,0.042396,0.000000,-8.265293
681,6.809000,681,-37.152344,29.599609,184.437500,6.822021,-12.296387,-4.984863,0.066670,0.036988,0.000000,-8.332460
682,6.820000,682,-37.468750,28.383789,184.164062,5.620605,-11.473145,-5.537842,0.062298,0.030520,0.000000,-8.449639
683,6.830000,683,-40.289062,24.829102,195.367188,4.598877,-11.611816,-5.652344,0.059436,0.023540,0.000000,-8.076473
684,6.839000,684,-43.509766,21.404297,206.757812,3.696289,-11.801270,-6.156738,0.057078,0.017877,0.000000,-8.156288
685,6.849000,685,-47.234375,18.648438,232.140625,3.418945,-12.952637,-6.256592,0.055797,0.014728,0.000000,-7.992773
686,6.860000,686,-50.570312,18.335938,257.578125,3.285034,-14.235352,-6.282715,0.055266,0.012754,0.000000,-7.941022
687,6.870000,687,-53.423828,20.262695,283.796875,3.511719,-15.763672,-6.084229,0.055546,0.012374,0.000000,-7.870801
688,6.879000,688,-54.292969,23.017578,302.859375,3.476929,-16.711914,-5.928223,0.055180,0.011480,0.000000,-7.821645
689,6.889000,689,-55.476562,24.696289,314.015625,3.207031,-17.338867,-5.644775,0.055217,0.010213,0.000000,-7.575000
690,6.900000,690,-55.437500,27.201172,318.593750,2.623169,-17.291016,-5.922119,0.054273,0.008234,0.000000,-7.854856
691,6.910000,691,-56.156250,28.401367,319.953125,1.865967,-16.834961,-5.753662,0.052617,0.005832,0.000000,-7.575559
692,6.919000,692,-56.568359,29.484375,329.828125,1.191406,-17.040039,-5.882568,0.051663,0.003612,0.000000,-7.610168
693,6.929000,693,-58.763672,28.857422,338.921875,0.119274,-17.194336,-6.355469,0.050732,0.000352,0.000000,-7.840157
694,6.940000,694,-59.832031,29.462891,350.875000,-0.748932,-17.468750,-6.348389,0.049786,-0.002134,0.000000,-7.687526
695,6.950000,695,-60.904297,28.496094,359.078125,-2.210449,-17.455078,-6.644775,0.048611,-0.006156,0.000000,-7.655073
696,6.960000,696,-63.058594,24.149414,366.062500,-3.775879,-17.489258,-7.160400,0.047777,-0.010315,0.000000,-7.663740
697,6.969000,697,-65.148438,20.470703,372.765625,-5.399170,-17.547852,-7.928223,0.047075,-0.014484,0.000000,-7.948260
698,6.980000,698,-65.179688,17.720703,380.765625,-6.725342,-17.828125,-8.517578,0.046822,-0.017663,0.000000,-8.196045
699,6.990000,699,-66.226562,15.989746,389.953125,-7.890869,-17.999023,-9.045898,0.046157,-0.020235,0.000000,-8.443812
700,7.000000,700,-67.320312,14.727539,398.562500,-8.872559,-18.219727,-9.238281,0.045714,-0.022261,0.000000,-8.412887
701,7.009000,701,-68.574219,15.645020,411.109375,-9.720703,-18.709961,-9.691406,0.045511,-0.023645,0.000000,-8.781984
702,7.019000,702,-72.265625,17.561523,424.390625,-10.504395,-19.321289,-9.456055,0.045527,-0.024752,0.000000,-8.466883
703,7.030000,703,-73.460938,19.685547,440.187500,-11.360840,-19.806641,-9.486816,0.044996,-0.025809,0.000000,-8.476625
704,7.040000,704,-74.031250,21.401367,455.875000,-12.322266,-20.540039,-9.444336,0.045056,-0.027030,0.000000,-8.407543
705,7.049000,705,-75.234375,21.126953,472.859375,-13.798340,-21.215820,-10.210938,0.044867,-0.029181,0.000000,-8.963455
706,7.059000,706,-77.644531,17.331055,494.953125,-15.634766,-22.246094,-10.813965,0.044946,-0.031588,0.000000,-9.140260
707,7.070000,707,-79.359375,15.142090,516.625000,-17.708008,-23.208008,-11.144531,0.044922,-0.034276,0.000000,-9.104601
708,7.080000,708,-79.046875,10.622070,534.812500,-20.210938,-23.748047,-11.954102,0.044404,-0.037791,0.000000,-9.438532
709,7.089000,709,-81.160156,4.256104,548.531250,-23.195312,-24.125000,-12.645996,0.043981,-0.042286,0.000000,-9.401228
710,7.099000,710,-82.152344,-2.865967,556.937500,-26.125000,-24.093750,-12.921387,0.043261,-0.046908,0.000000,-8.943773
711,7.110000,711,-82.359375,-8.228516,564.750000,-28.698242,-24.243164,-13.479980,0.042927,-0.050816,0.000000,-8.941592
712,7.120000,712,-82.714844,-10.238281,568.031250,-30.941406,-24.206055,-13.246094,0.042614,-0.054471,0.000000,-8.304214
713,7.129000,713,-83.472656,-10.886719,569.312500,-32.664062,-23.908203,-13.419922,0.041995,-0.057375,0.000000,-8.173527
714,7.139000,714,-83.714844,-11.267578,568.343750,-33.787109,-23.770508,-13.419434,0.041824,-0.059448,0.000000,-7.971466
715,7.150000,715,-85.023438,-12.551270,565.750000,-34.615234,-23.519531,-13.636230,0.041572,-0.061185,0.000000,-7.912314
716,7.160000,716,-83.878906,-13.105469,565.625000,-34.812500,-23.610352,-13.436035,0.041742,-0.061547,0.000000,-7.726494
717,7.169000,717,-83.730469,-12.036133,564.750000,-35.087891,-23.631836,-13.053223,0.041845,-0.062130,0.000000,-7.347404
718,7.179000,718,-84.894531,-10.787598,562.500000,-35.560547,-23.596680,-13.161133,0.041950,-0.063219,0.000000,-7.341671
719,7.190000,719,-85.394531,-10.200684,563.937500,-35.503906,-23.831055,-12.802246,0.042258,-0.062957,0.000000,-6.994985
720,7.200000,720,-85.203125,-7.355225,568.093750,-35.330078,-24.135742,-12.674805,0.042485,-0.062191,0.000000,-7.063483
721,7.209000,721,-88.371094,-4.595215,572.906250,-35.240234,-24.465820,-12.949707,0.042705,-0.061511,0.000000,-7.317645
722,7.219000,722,-89.281250,-0.695679,578.312500,-35.400391,-24.680664,-13.044922,0.042677,-0.061213,0.000000,-7.550036
723,7.230000,723,-92.234375,3.415283,582.750000,-36.113281,-24.635742,-13.232422,0.042275,-0.061970,0.000000,-7.660996
724,7.240000,724,-95.175781,4.227783,589.406250,-37.248047,-24.564453,-13.575684,0.041677,-0.063196,0.000000,-7.737166
725,7.250000,725,-99.261719,4.233398,594.843750,-39.480469,-23.915039,-14.286133,0.040204,-0.066371,0.000000,-7.868217
726,7.259000,726,-105.093750,-2.643677,598.656250,-42.773438,-23.171875,-15.657227,0.038706,-0.071449,0.000000,-8.046047
727,7.269000,727,-110.207031,-12.125488,603.843750,-46.580078,-22.151367,-17.023438,0.036684,-0.077139,0.000000,-8.077334
728,7.280000,728,-113.816406,-22.458008,609.250000,-50.316406,-21.299805,-18.355469,0.034961,-0.082587,0.000000,-8.170515
729,7.290000,729,-114.265625,-33.150391,618.437500,-53.298828,-21.074219,-19.231445,0.034077,-0.086183,0.000000,-8.254035
730,7.299000,730,-110.199219,-40.554688,624.468750,-55.267578,-21.156250,-18.963867,0.033879,-0.088503,0.000000,-7.836924
731,7.309000,731,-104.085938,-46.650391,616.906250,-56.302734,-20.994141,-18.806641,0.034031,-0.091266,0.000000,-7.719531
732,7.320000,732,-92.121094,-43.970703,588.281250,-55.625000,-20.163086,-17.784180,0.034275,-0.094555,0.000000,-7.566584
733,7.330000,733,-75.878906,-30.954102,531.093750,-52.304688,-18.249023,-15.547852,0.034361,-0.098485,0.000000,-7.011308
734,7.339000,734,-57.257812,-8.565430,443.062500,-46.041016,-15.082520,-12.851562,0.034042,-0.103915,0.000000,-6.610014
735,7.349000,735,-38.947266,17.743164,321.281250,-36.544922,-10.223145,-10.039551,0.031820,-0.113747,0.000000,-6.173985
736,7.360000,736,-21.176758,32.726562,185.914062,-25.540039,-5.032959,-8.036133,0.027071,-0.137376,0.000000,-6.012920
737,7.370000,737,-12.908203,28.149414,73.914062,-15.224609,-1.717712,-7.618408,0.023239,-0.205977,0.000000,-5.613786
738,7.379000,738,-3.869629,37.810547,-30.308594,-4.268311,1.766785,-5.417236,0.058293,0.140828,0.000000,-8.166287
739,7.389000,739,-2.854858,14.379883,-64.457031,-0.649231,2.397705,-6.347168,0.037199,0.010072,0.000000,-6.910833
740,7.400000,740,-0.934509,18.661133,-65.675781,-0.605072,2.464355,-5.930420,0.037523,0.009213,0.000000,-6.639252
741,7.410000,741,-0.981506,17.801758,-65.402344,-0.493042,2.534912,-5.964844,0.038759,0.007539,0.000000,-6.662217
742,7.419000,742,-2.493042,16.835938,-65.542969,-0.456161,2.534302,-6.175049,0.038666,0.006960,0.000000,-6.843382
743,7.429000,743,-2.121948,17.054688,-66.214844,-0.527924,2.472290,-6.369141,0.037337,0.007973,0.000000,-7.022837
744,7.440000,744,-1.720093,17.243164,-65.675781,-0.531830,2.461548,-6.018066,0.037480,0.008098,0.000000,-6.678274
745,7.450000,745,-2.032959,17.269531,-65.410156,-0.439529,2.452148,-6.122559,0.037489,0.006720,0.000000,-6.783633
746,7.459000,746,-1.969604,17.240234,-65.808594,-0.460953,2.575439,-6.298096,0.039135,0.007004,0.000000,-6.986593
747,7.469000,747,-1.768127,16.476562,-66.070312,-0.443115,2.555542,-6.071533,0.038679,0.006707,0.000000,-6.720691
748,7.480000,748,-2.167603,16.135742,-66.070312,-0.438004,2.420532,-5.774414,0.036636,0.006629,0.000000,-6.379928
749,7.490000,749,-2.119873,16.932617,-65.945312,-0.430969,2.594482,-5.651611,0.039343,0.006535,0.000000,-6.331644
750,7.500000,750,-1.488281,16.541992,-66.203125,-0.418732,2.613159,-5.809570,0.039472,0.006325,0.000000,-6.471926
751,7.509000,751,-1.644531,16.540039,-65.937500,-0.468124,2.437988,-5.791260,0.036974,0.007100,0.000000,-6.414490
752,7.519000,752,-1.805847,16.844727,-66.207031,-0.474274,2.506226,-6.211670,0.037854,0.007163,0.000000,-6.862253
753,7.530000,753,-1.669189,16.171875,-65.800781,-0.437225,2.534058,-6.140625,0.038511,0.006645,0.000000,-6.774512
754,7.540000,754,-1.620483,16.938477,-66.074219,-0.499680,2.634277,-6.194092,0.039868,0.007562,0.000000,-6.881658
755,7.549000,755,-1.000854,17.190430,-66.070312,-0.454147,2.581177,-6.036621,0.039067,0.006874,0.000000,-6.715081
756,7.559000,756,-1.427673,16.633789,-66.070312,-0.397003,2.493530,-5.669434,0.037741,0.006009,0.000000,-6.305781
757,7.570000,757,-1.000671,17.190430,-66.339844,-0.453156,2.507812,-5.844971,0.037803,0.006831,0.000000,-6.501647
758,7.580000,758,-0.971497,17.282227,-65.937500,-0.432541,2.582397,-5.948730,0.039164,0.006560,0.000000,-6.631950
759,7.589000,759,-1.687927,17.212891,-66.078125,-0.505737,2.535156,-6.316406,0.038366,0.007654,0.000000,-6.989716
760,7.599000,760,-1.561829,17.122070,-65.671875,-0.480820,2.563721,-6.088135,0.039038,0.007322,0.000000,-6.767987
761,7.610000,761,-1.562805,17.183594,-65.808594,-0.457779,2.515137,-6.053223,0.038219,0.006956,0.000000,-6.720833
762,7.620000,762,-1.914368,17.638672,-65.945312,-0.492340,2.504761,-5.878906,0.037982,0.007466,0.000000,-6.563158
763,7.629000,763,-1.494507,16.878906,-66.070312,-0.450089,2.491943,-6.246582,0.037717,0.006812,0.000000,-6.893377
764,7.639000,764,-0.413712,17.502930,-65.933594,-0.386688,2.551636,-6.368408,0.038700,0.005865,0.000000,-7.048199
765,7.650000,765,-1.938843,17.302734,-66.480469,-0.388123,2.453857,-5.705322,0.036911,0.005838,0.000000,-6.355302
766,7.660000,766,-1.303528,16.666016,-65.933594,-0.516724,2.570801,-6.403320,0.038991,0.007837,0.000000,-7.063356
767,7.669000,767,-0.095142,17.170898,-66.332031,-0.448227,2.584839,-5.949707,0.038968,0.006757,0.000000,-6.619469
768,7.679000,768,-0.340988,16.953125,-66.199219,-0.516937,2.601196,-5.967041,0.039293,0.007809,0.000000,-6.635850
769,7.690000,769,-0.692383,17.408203,-66.472656,-0.479523,2.688110,-6.229736,0.040439,0.007214,0.000000,-6.938707
770,7.700000,770,-0.996155,16.946289,-66.335938,-0.400345,2.604858,-5.984863,0.039268,0.006035,0.000000,-6.656317
771,7.710000,771,-1.090881,17.005859,-66.339844,-0.449738,2.528931,-6.019775,0.038121,0.006779,0.000000,-6.675448
772,7.719000,772,-1.142700,16.423828,-66.335938,-0.390198,2.501831,-6.019775,0.037715,0.005882,0.000000,-6.645915
773,7.730000,773,-0.964630,16.915039,-66.066406,-0.448227,2.557251,-5.914307,0.038707,0.006784,0.000000,-6.575586
774,7.740000,774,-2.027588,17.025391,-66.347656,-0.454834,2.499390,-5.984863,0.037671,0.006855,0.000000,-6.640129
775,7.750000,775,-1.906311,17.209961,-66.078125,-0.411331,2.577026,-6.176514,0.039000,0.006225,0.000000,-6.859563
776,7.759000,776,-1.798462,16.446289,-66.339844,-0.441635,2.481201,-6.177002,0.037401,0.006657,0.000000,-6.804088
777,7.769000,777,-1.922668,16.382812,-65.804688,-0.347519,2.477783,-5.930908,0.037654,0.005281,0.000000,-6.557934
778,7.780000,778,-1.929993,16.812500,-66.343750,-0.449890,2.575317,-5.827148,0.038818,0.006781,0.000000,-6.492860
779,7.790000,779,-1.632874,15.927734,-66.468750,-0.453369,2.558472,-6.089844,0.038491,0.006821,0.000000,-6.714061
780,7.799000,780,-1.541687,16.050781,-66.203125,-0.408783,2.513184,-5.827148,0.037962,0.006175,0.000000,-6.445983
781,7.809000,781,-21.782227,-27.864258,54.349609,-16.953125,0.236282,-9.439941,-0.004347,-0.311927,0.000000,-2.766610
782,7.820000,782,-22.259766,-147.968750,388.875000,-52.986328,-4.763916,-12.550293,0.012251,-0.136255,0.000000,-7.704587
783,7.830000,783,-111.500000,-2.651245,531.937500,-61.568359,-3.511719,-14.209961,0.006602,-0.115744,0.000000,-1.287046
784,7.839000,784,-108.113281,110.980469,688.656250,-68.410156,-6.667725,-13.151367,0.009682,-0.099339,0.000000,-3.486082
785,7.849000,785,-198.460938,-6.083008,817.406250,-74.339844,-5.333740,-18.620117,0.006525,-0.090946,0.000000,-0.531193
786,7.860000,786,-195.742188,8.173828,1090.625000,-62.875000,-23.187500,-17.871094,0.021261,-0.057650,0.000000,-6.760255
787,7.870000,787,-225.523438,545.093750,1971.625000,-4.391357,-65.425781,9.367676,0.033184,-0.002227,0.000000,-8.218240
788,7.879000,788,-215.109375,35.427734,1342.812500,-45.589844,-37.093750,-11.236328,0.027624,-0.033951,0.000000,-4.911800
789,7.889000,789,-180.156250,-141.867188,846.031250,-70.535156,-17.850586,-20.591797,0.021099,-0.083372,0.000000,-2.578560
790,7.900000,790,-150.023438,-120.378906,684.500000,-72.902344,-14.513184,-22.334961,0.021203,-0.106505,0.000000,-3.804440
791,7.910000,791,-138.820312,-137.414062,643.312500,-72.847656,-14.622559,-24.211914,0.022730,-0.113238,0.000000,-5.368693
792,7.919000,792,-131.632812,-169.328125,649.656250,-74.558594,-15.690430,-25.557617,0.024152,-0.114766,0.000000,-6.361020
793,7.929000,793,-125.933594,-129.218750,667.875000,-72.808594,-16.427734,-24.288086,0.024597,-0.109015,0.000000,-7.381001
794,7.940000,794,-136.125000,-68.976562,740.281250,-65.292969,-20.253906,-21.948242,0.027360,-0.088200,0.000000,-8.054807
795,7.950000,795,-131.789062,19.139648,789.625000,-50.810547,-24.260742,-16.213867,0.030724,-0.064348,0.000000,-8.321600
796,7.960000,796,-131.585938,10.806641,704.375000,-45.037109,-20.861328,-14.987305,0.029617,-0.063939,0.000000,-6.893875
797,7.969000,797,-126.726562,-3.569702,629.968750,-41.169922,-17.829102,-14.115234,0.028302,-0.065352,0.000000,-5.732331
798,7.980000,798,-115.792969,7.485352,558.062500,-37.791016,-15.380859,-13.363281,0.027561,-0.067718,0.000000,-5.728289
799,7.990000,799,-107.277344,9.293457,480.234375,-35.894531,-11.878906,-13.801270,0.024736,-0.074744,0.000000,-6.012835
800,8.000000,800,-97.789062,7.221924,403.875000,-35.050781,-8.428711,-14.434570,0.020870,-0.086786,0.000000,-6.098547
801,8.009000,801,-89.714844,2.203247,349.140625,-34.128906,-6.339600,-14.634766,0.018158,-0.097751,0.000000,-5.905040
802,8.019000,802,-79.296875,2.395386,306.703125,-32.619141,-4.918457,-14.000488,0.016037,-0.106354,0.000000,-5.605353
803,8.029000,803,-72.472656,3.624634,273.609375,-31.022461,-3.940552,-13.585449,0.014402,-0.113382,0.000000,-5.420535
804,8.039000,804,-67.097656,5.393311,247.210938,-29.220703,-3.126587,-13.262695,0.012647,-0.118202,0.000000,-5.399863
805,8.050000,805,-60.085938,4.910156,224.750000,-27.282227,-2.792969,-12.468262,0.012427,-0.121389,0.000000,-5.235496
806,8.060000,806,-56.628906,6.519531,207.320312,-25.531250,-2.464111,-12.278809,0.011886,-0.123149,0.000000,-5.382514
807,8.070000,807,-52.683594,6.815918,191.890625,-23.663086,-2.162598,-11.937988,0.011270,-0.123315,0.000000,-5.518100
808,8.080000,808,-49.246094,9.924805,181.429688,-21.761719,-2.099609,-11.627930,0.011573,-0.119946,0.000000,-5.835926
809,8.089000,809,-48.826172,12.327637,176.140625,-19.653320,-2.155396,-10.802246,0.012237,-0.111577,0.000000,-5.505197
810,8.099000,810,-49.025391,16.077148,182.007812,-17.201172,-2.951050,-10.438965,0.016214,-0.094508,0.000000,-6.066352
811,8.109000,811,-48.314453,21.177734,196.648438,-14.300293,-3.996094,-9.765137,0.020321,-0.072720,0.000000,-6.682058
812,8.119000,812,-51.951172,29.526367,217.445312,-10.977539,-5.296387,-8.347656,0.024357,-0.050484,0.000000,-6.444129
813,8.130000,813,-54.582031,38.005859,238.281250,-7.531006,-6.899902,-7.903076,0.028957,-0.031606,0.000000,-7.278516
814,8.140000,814,-56.923828,41.570312,255.914062,-4.482422,-8.282715,-6.963135,0.032365,-0.017515,0.000000,-7.311527
815,8.150000,815,-57.105469,44.521484,269.359375,-2.281738,-9.305176,-6.413330,0.034546,-0.008471,0.000000,-7.467611
816,8.160000,816,-57.376953,45.367188,278.578125,-1.335876,-9.764160,-6.108398,0.035050,-0.004795,0.000000,-7.423376
817,8.169000,817,-57.066406,42.875000,281.625000,-1.272583,-10.120605,-6.218018,0.035936,-0.004519,0.000000,-7.500926
818,8.179000,818,-56.271484,38.587891,287.203125,-1.441467,-10.387207,-6.464844,0.036167,-0.005019,0.000000,-7.578017
819,8.189000,819,-55.552734,34.951172,295.187500,-1.777710,-10.873047,-6.799072,0.036834,-0.006022,0.000000,-7.751922
820,8.199000,820,-55.349609,33.005859,306.062500,-2.065796,-11.344727,-6.741699,0.037067,-0.006750,0.000000,-7.591530
821,8.210000,821,-58.509766,30.683594,322.078125,-2.880127,-11.820312,-6.847168,0.036700,-0.008942,0.000000,-7.450047
822,8.220000,822,-61.691406,27.345703,337.312500,-3.936523,-11.889160,-7.566895,0.035247,-0.011670,0.000000,-7.810786
823,8.230000,823,-68.093750,25.664062,348.828125,-4.989990,-11.968750,-7.479980,0.034311,-0.014305,0.000000,-7.386466
824,8.240000,824,-73.667969,23.358398,357.187500,-5.739258,-11.746094,-7.353760,0.032885,-0.016068,0.000000,-6.938209
825,8.250000,825,-79.003906,21.060547,363.421875,-6.403076,-11.658691,-7.625488,0.032080,-0.017619,0.000000,-6.909159
826,8.259000,826,-83.394531,17.590820,370.171875,-6.878418,-11.764160,-7.787842,0.031780,-0.018582,0.000000,-6.797272
827,8.269000,827,-85.582031,17.423828,378.765625,-7.273438,-11.652344,-7.765869,0.030764,-0.019203,0.000000,-6.658464
828,8.279000,828,-88.000000,16.427734,386.046875,-7.789795,-11.842773,-8.241699,0.030677,-0.020178,0.000000,-6.969957
829,8.289000,829,-89.234375,14.473145,390.281250,-8.199219,-11.977051,-8.223633,0.030688,-0.021008,0.000000,-6.793109
830,8.300000,830,-89.656250,12.143066,392.656250,-8.401367,-11.989746,-8.257812,0.030535,-0.021396,0.000000,-6.710294
831,8.310000,831,-89.164062,11.971680,393.187500,-8.302734,-12.170898,-8.127441,0.030954,-0.021116,0.000000,-6.615188
832,8.320000,832,-88.156250,10.743652,390.531250,-7.838135,-12.289551,-8.064453,0.031469,-0.020070,0.000000,-6.633208
833,8.330000,833,-86.867188,10.752930,384.421875,-7.382812,-12.303711,-8.205566,0.032006,-0.019205,0.000000,-6.881440
834,8.339000,834,-84.320312,10.267578,375.453125,-7.090332,-12.283691,-7.915527,0.032717,-0.018885,0.000000,-6.659085
835,8.349000,835,-82.203125,9.756836,367.531250,-6.614502,-12.226074,-8.250977,0.033265,-0.017997,0.000000,-7.096123
836,8.359000,836,-80.730469,7.900879,360.875000,-6.291016,-12.271484,-7.997070,0.034005,-0.017433,0.000000,-6.858391
837,8.369000,837,-78.699219,5.722900,355.187500,-5.719238,-12.386230,-7.972900,0.034872,-0.016102,0.000000,-6.905254
838,8.380000,838,-76.359375,6.568848,349.484375,-5.110107,-12.390625,-7.555664,0.035454,-0.014622,0.000000,-6.672041
839,8.390000,839,-74.871094,7.535645,344.265625,-4.182373,-12.622559,-7.719971,0.036665,-0.012149,0.000000,-7.086681
840,8.400000,840,-74.023438,9.409668,337.468750,-3.357178,-12.541992,-7.482422,0.037165,-0.009948,0.000000,-7.095738
841,8.410000,841,-73.019531,11.367188,326.343750,-2.636597,-12.325684,-7.406250,0.037769,-0.008079,0.000000,-7.245638
842,8.419000,842,-69.585938,12.303711,309.937500,-1.912903,-11.842773,-6.913818,0.038210,-0.006172,0.000000,-6.954468
843,8.429000,843,-65.449219,13.854980,291.953125,-1.474915,-11.143066,-7.284424,0.038167,-0.005052,0.000000,-7.482589
844,8.439000,844,-61.414062,15.048340,270.078125,-0.992310,-10.598145,-6.825439,0.039241,-0.003674,0.000000,-7.190307
845,8.449000,845,-56.859375,15.074707,247.015625,-0.789307,-9.672363,-6.746826,0.039157,-0.003195,0.000000,-7.155418
846,8.460000,846,-51.650391,13.906250,224.015625,-0.632538,-8.997070,-7.048096,0.040163,-0.002824,0.000000,-7.460766
847,8.470000,847,-47.355469,11.730957,202.718750,-0.420792,-8.178711,-7.261963,0.040345,-0.002076,0.000000,-7.636952
848,8.480000,848,-43.072266,9.730469,181.953125,-0.309402,-7.678955,-7.048340,0.042203,-0.001700,0.000000,-7.385752
849,8.490000,849,-38.298828,9.803711,159.851562,-0.181145,-6.773193,-6.964600,0.042372,-0.001133,0.000000,-7.336600
850,8.500000,850,-31.770508,10.300293,132.625000,0.204399,-5.620361,-6.648438,0.042378,0.001541,0.000000,-7.133906
851,8.509000,851,-26.279297,12.657227,103.921875,0.532166,-4.526611,-6.498535,0.043558,0.005121,0.000000,-7.184428
852,8.519000,852,-20.083984,13.984863,74.714844,1.000000,-3.246582,-6.793701,0.043453,0.013384,0.000000,-7.670193
853,8.529000,853,-14.628418,17.016602,46.609375,1.244812,-2.258179,-6.441895,0.048449,0.026707,0.000000,-7.657018
854,8.539000,854,-10.123047,19.937500,21.272461,1.581421,-1.242737,-6.530029,0.058420,0.074341,0.000000,-8.447337
855,8.550000,855,-6.468750,22.552734,0.722992,1.440857,-0.440247,-6.299072,0.608923,1.992909,0.000000,-32.923584
856,8.560000,856,-3.166504,23.611328,-14.818359,1.381775,0.265213,-5.825684,0.017898,-0.093247,0.000000,-5.953001
857,8.570000,857,-2.067993,25.766602,-27.790039,1.081055,0.779510,-6.153076,0.028050,-0.038901,0.000000,-6.795382
858,8.580000,858,0.591187,25.932617,-37.556641,0.816833,1.217712,-5.896973,0.032423,-0.021749,0.000000,-6.750653
859,8.589000,859,0.024301,28.291992,-44.814453,0.410049,1.512817,-5.809814,0.033757,-0.009150,0.000000,-6.765100
860,8.599000,860,1.493164,25.132812,-51.753906,0.127182,1.813232,-5.687012,0.035036,-0.002457,0.000000,-6.571226
861,8.609000,861,1.186218,26.757812,-55.654297,-0.060753,2.070068,-5.696289,0.037195,0.001092,0.000000,-6.690254
862,8.619000,862,0.921539,26.053711,-59.138672,-0.177666,2.178345,-5.792480,0.036835,0.003004,0.000000,-6.749388
863,8.630000,863,-0.331223,21.359375,-62.740234,-0.335236,2.418701,-5.923584,0.038551,0.005343,0.000000,-6.748780
864,8.640000,864,-0.619720,18.479492,-65.003906,-0.339935,2.474854,-5.876465,0.038072,0.005229,0.000000,-6.583264
865,8.650000,865,-1.472229,17.305664,-65.003906,-0.462830,2.567627,-5.911621,0.039500,0.007120,0.000000,-6.605670
866,8.660000,866,-0.645081,18.172852,-65.269531,-0.428070,2.570679,-6.069824,0.039386,0.006558,0.000000,-6.789804
867,8.669000,867,-1.530090,17.060547,-65.000000,-0.505707,2.614136,-6.138916,0.040217,0.007780,0.000000,-6.836952
868,8.679000,868,-1.657532,17.212891,-65.269531,-0.413116,2.512817,-6.349365,0.038499,0.006329,0.000000,-7.022537
869,8.689000,869,-0.824921,17.773438,-65.402344,-0.491684,2.588501,-6.279785,0.039578,0.007518,0.000000,-6.989426
870,8.699000,870,-1.122803,16.972656,-64.996094,-0.454147,2.529297,-6.173828,0.038915,0.006987,0.000000,-6.842158
871,8.710000,871,-0.932220,18.506836,-65.140625,-0.460754,2.586670,-6.576172,0.039709,0.007073,0.000000,-7.317654
872,8.720000,872,-0.856476,17.772461,-65.000000,-0.517151,2.636719,-6.243652,0.040565,0.007956,0.000000,-6.971405
873,8.730000,873,-1.766235,18.038086,-65.277344,-0.430862,2.535156,-6.384521,0.038837,0.006600,0.000000,-7.096719
874,8.740000,874,-1.644470,18.222656,-65.546875,-0.528473,2.587769,-6.332520,0.039480,0.008063,0.000000,-7.065202
875,8.750000,875,-2.036621,19.167969,-65.285156,-0.455688,2.626221,-6.314453,0.040227,0.006980,0.000000,-7.099737
876,8.759000,876,-2.086548,18.493164,-65.417969,-0.417572,2.525635,-6.524658,0.038608,0.006383,0.000000,-7.251955
877,8.769000,877,-2.234009,18.001953,-64.878906,-0.457733,2.447754,-6.505859,0.037728,0.007055,0.000000,-7.200799
878,8.779000,878,-1.443787,19.111328,-63.941406,-0.361115,2.524414,-6.416016,0.039480,0.005648,0.000000,-7.178687
879,8.789000,879,5.312500,29.178711,-43.169922,-0.970886,2.462158,-5.893311,0.057034,0.022490,0.000000,-7.438015
880,8.800000,880,4.639160,28.153320,-37.539062,-0.639771,2.128784,-5.757080,0.056709,0.017043,0.000000,-7.274549
881,8.810000,881,0.046188,21.805664,-12.559570,-0.564026,1.678955,-5.105225,0.133679,0.044908,0.000000,-8.018117
882,8.820000,882,-6.271729,13.545410,11.452148,0.408875,0.647156,-5.159180,-0.056510,0.035703,0.000000,-4.617653
883,8.830000,883,-14.067383,8.173828,49.992188,2.171021,-0.761902,-5.438477,0.015240,0.043427,0.000000,-6.173956
884,8.839000,884,-20.653320,11.043457,87.683594,3.982422,-2.006714,-5.209717,0.022886,0.045418,0.000000,-6.400490
885,8.849000,885,-24.583008,18.712891,115.582031,5.536865,-2.857300,-4.532227,0.024721,0.047904,0.000000,-6.172457
886,8.859000,886,-30.035156,22.706055,141.804688,7.193359,-3.955811,-4.271729,0.027896,0.050727,0.000000,-6.428741
887,8.869000,887,-37.365234,21.002930,167.906250,8.865723,-4.929688,-3.666016,0.029360,0.052802,0.000000,-6.255602
888,8.880000,888,-42.507812,20.030273,189.742188,10.329102,-5.828857,-3.269287,0.030720,0.054438,0.000000,-6.198636
889,8.890000,889,-45.476562,19.135742,206.484375,11.889160,-6.532715,-2.866943,0.031638,0.057579,0.000000,-6.090851
890,8.900000,890,-47.208984,21.780273,222.648438,13.277344,-6.666748,-1.937134,0.029943,0.059634,0.000000,-5.404544
891,8.910000,891,-52.880859,24.455078,246.625000,14.916504,-7.604248,-1.756897,0.030833,0.060483,0.000000,-5.709294
892,8.919000,892,-58.414062,26.425781,273.000000,16.916992,-8.725586,-1.520874,0.031962,0.061967,0.000000,-5.985235
893,8.929000,893,-63.042969,27.838867,301.859375,18.745117,-10.006348,-0.772186,0.033149,0.062099,0.000000,-5.609913
894,8.939000,894,-67.542969,28.759766,335.109375,20.750977,-11.276367,-0.382233,0.033650,0.061923,0.000000,-5.532456
895,8.949000,895,-74.113281,30.769531,375.578125,23.013672,-12.756836,0.156494,0.033966,0.061275,0.000000,-5.429935
896,8.960000,896,-82.246094,32.085938,418.515625,25.631836,-14.354004,0.837433,0.034297,0.061245,0.000000,-5.300164
897,8.970000,897,-90.210938,32.630859,459.078125,28.180664,-15.657227,1.524963,0.034106,0.061385,0.000000,-5.125567
898,8.980000,898,-99.406250,34.326172,497.281250,30.499023,-16.982422,1.950928,0.034151,0.061332,0.000000,-5.318068
899,8.990000,899,-105.929688,35.839844,534.406250,32.833984,-18.194336,2.531738,0.034046,0.061440,0.000000,-5.196794
900,9.000000,900,-112.074219,37.613281,566.000000,34.623047,-19.061523,2.765137,0.033678,0.061171,0.000000,-5.357332
901,9.009000,901,-116.441406,39.478516,590.562500,35.929688,-19.731445,3.606323,0.033411,0.060840,0.000000,-4.796973
902,9.019000,902,-117.757812,40.798828,605.968750,36.435547,-19.998047,3.498657,0.033002,0.060128,0.000000,-4.928291
903,9.029000,903,-118.281250,40.250000,613.156250,36.240234,-20.034180,3.312744,0.032674,0.059104,0.000000,-4.993321
904,9.039000,904,-122.609375,35.800781,622.593750,36.210938,-21.621094,3.025146,0.034727,0.058161,0.000000,-5.349259
905,9.050000,905,-120.910156,33.388672,622.812500,35.646484,-21.401367,2.763550,0.034362,0.057235,0.000000,-5.304023
906,9.060000,906,-119.265625,30.449219,619.218750,35.064453,-21.165039,2.551392,0.034180,0.056627,0.000000,-5.243015
907,9.070000,907,-117.890625,28.208984,613.750000,34.335938,-20.799805,2.405151,0.033890,0.055945,0.000000,-5.146175
908,9.080000,908,-116.132812,27.408203,604.500000,33.386719,-20.225586,2.118408,0.033458,0.055230,0.000000,-5.212676
909,9.089000,909,-114.058594,27.438477,595.125000,32.351562,-19.567383,2.291016,0.032879,0.054361,0.000000,-4.811480
910,9.099000,910,-113.363281,26.541016,588.187500,31.225586,-19.043945,2.051392,0.032377,0.053088,0.000000,-4.826144
911,9.109000,911,-113.015625,28.223633,582.656250,30.254883,-18.506836,1.898010,0.031763,0.051926,0.000000,-4.866879
912,9.119000,912,-112.882812,29.039062,578.250000,29.294922,-18.003906,1.897888,0.031135,0.050661,0.000000,-4.725042
913,9.130000,913,-111.792969,27.664062,573.187500,28.379883,-17.676758,1.521606,0.030839,0.049512,0.000000,-4.866674
914,9.140000,914,-109.468750,27.183594,569.937500,27.489258,-17.287109,0.921692,0.030332,0.048232,0.000000,-5.182733
915,9.150000,915,-106.121094,26.034180,563.843750,26.061523,-16.688477,0.584930,0.029598,0.046221,0.000000,-5.090663
916,9.160000,916,-104.089844,23.828125,558.468750,25.020508,-16.385742,0.412827,0.029340,0.044802,0.000000,-4.949734
917,9.169000,917,-101.574219,23.229492,554.812500,24.059570,-16.080078,-0.288071,0.028983,0.043365,0.000000,-5.366118
918,9.179000,918,-101.476562,23.570312,555.906250,23.575195,-15.975586,-0.422104,0.028738,0.042409,0.000000,-5.402943
919,9.189000,919,-101.132812,23.735352,560.250000,23.432617,-16.073242,-0.655426,0.028689,0.041825,0.000000,-5.566288
920,9.199000,920,-103.281250,23.134766,566.250000,23.387695,-16.142578,-0.786865,0.028508,0.041303,0.000000,-5.712190
921,9.210000,921,-104.523438,21.754883,570.187500,22.988281,-16.173828,-0.985901,0.028366,0.040317,0.000000,-5.817073
922,9.220000,922,-105.054688,20.769531,572.500000,22.547852,-16.049805,-0.847107,0.028035,0.039385,0.000000,-5.566940
923,9.230000,923,-104.968750,20.628906,571.375000,21.965820,-15.757812,-0.695740,0.027579,0.038444,0.000000,-5.300056
924,9.240000,924,-104.835938,20.005859,567.406250,21.546875,-15.540527,-0.972656,0.027389,0.037974,0.000000,-5.501666
925,9.250000,925,-104.371094,20.624023,563.093750,21.203125,-15.258301,-1.200623,0.027097,0.037655,0.000000,-5.689539
926,9.259000,926,-105.472656,21.312500,556.625000,20.840820,-15.003906,-1.173401,0.026955,0.037441,0.000000,-5.696927
927,9.269000,927,-104.550781,21.760742,549.781250,20.724609,-14.753418,-1.198853,0.026835,0.037696,0.000000,-5.723960
928,9.279000,928,-105.968750,21.903320,540.468750,20.288086,-14.640137,-1.135559,0.027088,0.037538,0.000000,-5.706722
929,9.289000,929,-106.132812,20.880859,527.062500,19.447266,-14.185547,-1.163879,0.026914,0.036897,0.000000,-5.641905
930,9.300000,930,-102.542969,19.477539,508.890625,18.237305,-13.411621,-1.467957,0.026355,0.035837,0.000000,-5.656150
931,9.310000,931,-98.417969,17.984375,486.015625,16.428711,-12.596191,-1.298523,0.025917,0.033803,0.000000,-5.091436
932,9.320000,932,-89.902344,15.696777,456.578125,14.324707,-10.730957,-2.043579,0.023503,0.031374,0.000000,-5.233102
933,9.330000,933,-83.253906,13.573242,432.359375,12.623535,-9.996094,-2.383545,0.023120,0.029197,0.000000,-5.128109
934,9.339000,934,-78.421875,13.125488,411.171875,11.364258,-9.224609,-2.857056,0.022435,0.027639,0.000000,-5.319004
935,9.349000,935,-73.839844,13.278320,393.687500,10.528320,-8.727539,-3.438110,0.022169,0.026743,0.000000,-5.707160
936,9.359000,936,-71.351562,14.475586,379.750000,10.003906,-8.231445,-3.703247,0.021676,0.026343,0.000000,-5.896662
937,9.369000,937,-69.765625,14.328613,366.718750,9.617188,-7.916260,-4.181396,0.021587,0.026225,0.000000,-6.320306
938,9.380000,938,-66.921875,14.390137,354.718750,9.371582,-7.553467,-3.992188,0.021294,0.026420,0.000000,-6.066674
939,9.390000,939,-65.230469,14.210938,343.046875,9.336914,-7.379639,-4.172852,0.021512,0.027218,0.000000,-6.253975
940,9.400000,940,-62.791016,14.484375,333.015625,9.328613,-7.229736,-4.051270,0.021710,0.028013,0.000000,-6.124660
941,9.410000,941,-60.892578,14.706055,328.734375,9.445801,-7.282715,-4.498291,0.022154,0.028734,0.000000,-6.573764
942,9.419000,942,-60.720703,15.936035,326.203125,9.646484,-7.228760,-4.468750,0.022160,0.029572,0.000000,-6.617531
943,9.429000,943,-60.837891,16.814453,324.578125,9.873047,-7.306885,-4.755371,0.022512,0.030418,0.000000,-6.984470
944,9.439000,944,-60.101562,18.593750,324.187500,9.867188,-7.107666,-4.856689,0.021925,0.030437,0.000000,-7.093640
945,9.449000,945,-60.255859,20.056641,324.328125,9.813477,-7.087646,-4.888428,0.021853,0.030258,0.000000,-7.149945
946,9.460000,946,-59.578125,20.796875,322.921875,9.499023,-6.697021,-4.820312,0.020739,0.029416,0.000000,-7.004157
947,9.470000,947,-59.917969,20.612305,320.000000,8.535156,-6.249268,-5.022949,0.019529,0.026672,0.000000,-7.023640
948,9.480000,948,-59.738281,19.249023,316.203125,7.242920,-5.516357,-5.179932,0.017446,0.022906,0.000000,-6.884102
949,9.490000,949,-61.267578,18.594727,309.203125,5.303223,-4.632324,-5.398926,0.014981,0.017151,0.000000,-6.728319
950,9.500000,950,-59.503906,16.729492,302.156250,3.110840,-3.510986,-5.674072,0.011620,0.010295,0.000000,-6.481085
951,9.509000,951,-57.980469,14.020020,292.062500,0.748413,-1.973816,-5.522705,0.006758,0.002563,0.000000,-5.766030
952,9.519000,952,-55.585938,13.403320,278.812500,-1.723389,-0.622620,-6.049561,0.002233,-0.006181,0.000000,-5.735905
953,9.529000,953,-55.542969,11.564941,263.125000,-4.080566,0.554138,-6.782471,-0.002106,-0.015508,0.000000,-5.896750
954,9.539000,954,-53.943359,10.261230,245.234375,-6.030273,1.695984,-7.064941,-0.006916,-0.024590,0.000000,-5.667519
955,9.550000,955,-53.751953,7.854004,226.062500,-7.835938,2.557007,-6.868164,-0.011311,-0.034663,0.000000,-4.916139
956,9.560000,956,-50.765625,5.317627,203.828125,-9.324707,3.322266,-6.378174,-0.016299,-0.045748,0.000000,-3.969080
957,9.570000,957,-47.132812,1.629944,182.367188,-10.384766,3.727539,-6.355225,-0.020440,-0.056944,0.000000,-3.637965
958,9.580000,958,-43.580078,-0.901398,163.757812,-11.024414,4.040039,-6.315918,-0.024671,-0.067321,0.000000,-3.404282
959,9.589000,959,-39.984375,-1.646545,147.070312,-11.105469,3.614746,-6.744629,-0.024578,-0.075511,0.000000,-3.765826
960,9.599000,960,-37.490234,-2.019775,131.765625,-10.993164,3.468506,-7.167725,-0.026323,-0.083430,0.000000,-4.093094
961,9.609000,961,-34.710938,-2.748779,113.371094,-10.318848,3.326050,-7.097412,-0.029338,-0.091018,0.000000,-4.018723
962,9.619000,962,-28.285156,-0.629150,90.218750,-9.368652,3.173218,-6.880615,-0.035172,-0.103844,0.000000,-3.965507
963,9.630000,963,-26.594727,-0.485199,63.105469,-8.117188,2.941772,-6.652344,-0.046617,-0.128629,0.000000,-3.254111
964,9.640000,964,-21.285156,3.441895,35.039062,-6.737305,2.878418,-6.484863,-0.082149,-0.192280,0.000000,-2.109410
965,9.650000,965,-17.139648,5.686035,10.521484,-5.439941,2.677002,-6.833008,-0.254432,-0.517032,0.000000,3.475443
966,9.660000,966,-12.093750,6.456543,-9.918945,-4.092773,2.910400,-7.000977,0.293418,0.412622,0.000000,-13.885590
967,9.669000,967,-9.372070,5.221680,-25.843750,-3.255737,2.926758,-6.952393,0.113248,0.125978,0.000000,-8.724411
968,9.679000,968,-7.774170,5.562744,-38.837891,-2.324951,2.792114,-6.477051,0.071892,0.059863,0.000000,-7.342350
969,9.689000,969,-5.143799,7.289551,-48.345703,-1.716797,2.672241,-6.360352,0.055274,0.035511,0.000000,-6.945932
970,9.699000,970,-3.767212,16.105469,-57.236328,-1.145508,2.551025,-6.766846,0.044570,0.020014,0.000000,-7.560062
971,9.710000,971,-2.401001,14.899414,-59.365234,-0.676483,2.516235,-6.439941,0.042386,0.011395,0.000000,-7.098823
972,9.720000,972,-1.774475,11.008789,-52.630859,0.384338,1.975891,-6.476074,0.037542,-0.007303,0.000000,-6.876413
973,9.730000,973,-0.886047,-0.486893,-10.728516,3.144531,0.690063,-6.898193,0.064320,-0.293100,0.000000,-6.607175
974,9.740000,974,-5.001221,7.883057,50.875000,6.522461,-1.071838,-7.003418,0.021068,0.128206,0.000000,-7.810684
975,9.750000,975,-5.593750,27.291992,98.863281,8.894043,-2.188477,-6.799316,0.022136,0.089963,0.000000,-7.906694
976,9.759000,976,-10.554688,43.642578,138.453125,10.821289,-3.498779,-6.777588,0.025270,0.078159,0.000000,-8.705396
977,9.769000,977,-19.235352,36.628906,156.976562,10.784668,-3.488281,-7.101318,0.022222,0.068702,0.000000,-9.236789
978,9.779000,978,-23.320312,28.891602,157.000000,9.436035,-3.029297,-6.328125,0.019295,0.060102,0.000000,-8.287186
979,9.789000,979,-30.083984,21.407227,155.375000,8.110840,-2.943481,-6.197266,0.018944,0.052202,0.000000,-8.173247
980,9.800000,980,-34.986328,17.591797,157.148438,6.825928,-2.594116,-5.997559,0.016507,0.043436,0.000000,-7.807626
981,9.810000,981,-37.833984,16.868164,164.289062,6.435059,-2.315430,-5.608398,0.014094,0.039169,0.000000,-7.328056
982,9.820000,982,-42.517578,17.731445,173.140625,6.557617,-2.591675,-5.647705,0.014969,0.037875,0.000000,-7.523453
983,9.830000,983,-45.212891,20.399414,183.562500,6.915283,-2.777344,-5.469238,0.015130,0.037673,0.000000,-7.481175
984,9.839000,984,-45.728516,21.323242,194.257812,7.622314,-2.982056,-5.174072,0.015351,0.039238,0.000000,-7.295708
985,9.849000,985,-47.449219,21.343750,207.781250,8.547852,-3.509277,-5.217041,0.016889,0.041139,0.000000,-7.529521
986,9.859000,986,-49.767578,20.845703,222.406250,9.621094,-4.112793,-4.699463,0.018492,0.043259,0.000000,-7.237848
987,9.869000,987,-53.093750,20.621094,236.765625,10.447754,-4.691895,-4.824219,0.019817,0.044127,0.000000,-7.575727
988,9.880000,988,-55.542969,19.804688,251.429688,11.213867,-5.106934,-4.772949,0.020312,0.044600,0.000000,-7.652453
989,9.890000,989,-58.431641,19.699219,266.484375,11.890625,-5.687988,-4.859619,0.021345,0.044620,0.000000,-7.887330
990,9.900000,990,-60.791016,19.880859,281.250000,12.565918,-6.049561,-4.884766,0.021510,0.044679,0.000000,-8.028465
991,9.910000,991,-63.353516,19.892578,295.078125,13.175293,-6.446045,-4.556152,0.021845,0.044650,0.000000,-7.819456
992,9.919000,992,-66.683594,21.195312,308.296875,13.544434,-6.830078,-4.569336,0.022154,0.043933,0.000000,-7.968518
993,9.929000,993,-68.820312,21.768555,320.140625,13.791016,-7.208496,-4.569336,0.022517,0.043078,0.000000,-8.024132
994,9.939000,994,-71.339844,22.353516,328.984375,13.834961,-7.317139,-4.635498,0.022242,0.042054,0.000000,-8.132770
995,9.949000,995,-70.910156,21.528320,335.875000,13.488770,-7.287354,-5.003418,0.021697,0.040160,0.000000,-8.318268
996,9.960000,996,-73.191406,21.271484,342.203125,12.922852,-7.275635,-4.981689,0.021261,0.037764,0.000000,-8.197923
997,9.970000,997,-76.031250,21.188477,346.875000,12.515625,-7.209229,-5.158691,0.020783,0.036081,0.000000,-8.342348
998,9.980000,998,-76.136719,21.379883,349.843750,11.972656,-7.160889,-5.192871,0.020469,0.034223,0.000000,-8.236109
999,9.990000,999,-74.355469,20.760742,349.031250,11.310059,-6.275635,-5.222412,0.017980,0.032404,0.000000,-8.005119
1000,10.000000,1000,-73.570312,21.230469,350.640625,10.916992,-6.121826,-5.200928,0.017459,0.031134,0.000000,-7.862159
1001,10.009000,1001,-75.265625,20.567383,351.671875,10.225098,-6.111816,-5.326904,0.017379,0.029076,0.000000,-7.872750
1002,10.019000,1002,-75.328125,19.705078,351.375000,9.456055,-5.774414,-5.208252,0.016434,0.026912,0.000000,-7.559279
1003,10.029000,1003,-74.765625,18.631836,348.171875,8.468262,-5.635254,-5.502686,0.016185,0.024322,0.000000,-7.622702
1004,10.039000,1004,-73.914062,16.491211,344.718750,7.505127,-5.170654,-5.632324,0.015000,0.021772,0.000000,-7.488924
1005,10.050000,1005,-73.320312,16.199219,341.937500,6.385010,-4.932617,-5.727051,0.014425,0.018673,0.000000,-7.329845
1006,10.060000,1006,-72.644531,14.988281,339.421875,5.331055,-4.546387,-6.020752,0.013395,0.015706,0.000000,-7.362488
1007,10.070000,1007,-72.550781,13.319336,336.765625,4.583740,-4.409912,-6.261475,0.013095,0.013611,0.000000,-7.423384
1008,10.080000,1008,-72.027344,13.437012,335.375000,3.607422,-4.062012,-6.562256,0.012112,0.010756,0.000000,-7.499756
1009,10.089000,1009,-71.492188,12.438477,335.562500,2.941528,-3.873047,-6.715576,0.011542,0.008766,0.000000,-7.485838
1010,10.099000,1010,-70.246094,12.545410,334.578125,2.435425,-3.142334,-6.786377,0.009392,0.007279,0.000000,-7.415530
1011,10.109000,1011,-70.421875,12.565430,334.093750,1.913574,-3.026489,-7.101562,0.009059,0.005728,0.000000,-7.618742
1012,10.119000,1012,-70.191406,11.572754,332.296875,1.229614,-2.876953,-7.183838,0.008658,0.003700,0.000000,-7.543765
1013,10.130000,1013,-68.011719,11.441406,329.843750,0.706268,-2.543457,-7.177734,0.007711,0.002141,0.000000,-7.411588
1014,10.140000,1014,-68.199219,10.016602,327.281250,0.031776,-2.408569,-7.369873,0.007359,0.000097,0.000000,-7.450210
1015,10.150000,1015,-67.910156,8.507812,323.484375,-0.562958,-2.235962,-7.492188,0.006912,-0.001740,0.000000,-7.432811
1016,10.160000,1016,-67.085938,7.991211,319.687500,-1.080750,-1.995850,-7.659180,0.006243,-0.003381,0.000000,-7.482276
1017,10.169000,1017,-66.261719,7.684082,315.500000,-1.577820,-1.902161,-7.635742,0.006029,-0.005001,0.000000,-7.350694
1018,10.179000,1018,-65.894531,7.479004,313.015625,-1.966736,-1.820679,-8.125977,0.005817,-0.006283,0.000000,-7.755451
1019,10.189000,1019,-63.812500,6.729492,311.187500,-2.219482,-1.636841,-7.804199,0.005260,-0.007132,0.000000,-7.384467
1020,10.199000,1020,-63.585938,7.553223,310.671875,-2.423828,-1.506714,-8.058594,0.004850,-0.007802,0.000000,-7.599135
1021,10.210000,1021,-63.265625,7.231689,310.406250,-2.414551,-1.668396,-8.161133,0.005375,-0.007779,0.000000,-7.707880
1022,10.220000,1022,-65.218750,6.945068,310.671875,-2.466919,-1.632446,-7.738037,0.005255,-0.007941,0.000000,-7.256655
1023,10.230000,1023,-65.628906,7.530273,310.781250,-2.552979,-1.424500,-7.991943,0.004584,-0.008215,0.000000,-7.487336
1024,10.240000,1024,-65.148438,7.127441,310.015625,-2.777222,-1.386597,-8.169922,0.004473,-0.008958,0.000000,-7.618179
